Folder: python_study_group/Task01/nick/files/ESI_material_XRD/kinetics/crystal_size_analysis/10ul IPA

Note: Task01/nick/files/ESI_material_XRD/kinetics/crystal_size_analysis/10ul IPA/output_quant_size_all.txt
file_name	Rwp	chisq	wtpc_Form1	wtpc_Form1_esd	wtpc_Form2	wtpc_Form2_esd	CS_L_Form1	CS_L_Form1_esd	CS_L_Form2	CS_L_Form2_esd	use_(Y_or_N)	comments	
2033_RVR_10ul_IPA_1m.xy	      13.13	      4.246	       95.0	        0.6	        5.0	        0.6	76.720836	1.340914	119.904539	36.186476	Y
2031_RVR_10ul_IPA_5m.xy	      12.04	      4.024	       95.0	        0.7	        5.0	        0.7	60.936961	0.975344	57.691333	14.630609	Y
2028_RVR_10ul_IPA_15m.xy	      12.73	      4.048	       94.0	        0.8	        6.0	        0.8	68.090874	1.224705	50.770088	11.982436	Y
RVR_10ul_IPA_30m.xy	      14.15	      5.145	       96.8	        0.7	        3.2	        0.7	69.364686	1.017143	51.647083	18.300812	Y
RVR_10ul_IPA_45m.xy	      11.96	      3.964	       88.7	        0.8	       11.3	        0.8	71.542509	1.515672	74.771630	10.398985	Y

Note: README.md
# Python Study Group 15

## Task 01: Recursively remove unwanted files from a directory

File: 2028_RVR_10ul_IPA_15m.xy
5.00155 1075.000
5.16379 796.000
5.32603 720.000
5.48827 675.000
5.65051 603.000
5.81275 586.000
5.97499 497.000
6.13723 597.000
6.29947 520.000
6.46171 623.000
6.62395 1318.000
6.78620 5364.000
6.94844 1230.000
7.11068 505.000
7.27292 417.000
7.43516 423.000
7.59740 398.000
7.75964 404.000
7.92188 480.000
8.08412 605.000
8.24636 2140.000
8.40860 5402.000
8.57084 778.000
8.73309 522.000
8.89533 448.000
9.05757 446.000
9.21981 440.000
9.38205 427.000
9.54429 399.000
9.70653 430.000
9.86877 514.000
10.03101 394.000
10.19325 416.000
10.35549 460.000
10.51773 983.000
10.67998 541.000
10.84222 404.000
11.00446 391.000
11.16670 345.000
11.32894 373.000
11.49118 382.000
11.65342 365.000
11.81566 339.000
11.97790 374.000
12.14014 329.000
12.30238 352.000
12.46463 389.000
12.62687 371.000
12.78911 345.000
12.95135 393.000
13.11359 629.000
13.27583 810.000
13.43807 1039.000
13.60031 1446.000
13.76255 585.000
13.92479 454.000
14.08703 377.000
14.24927 442.000
14.41152 503.000
14.57376 1047.000
14.73600 1639.000
14.89824 1364.000
15.06048 551.000
15.22272 451.000
15.38496 368.000
15.54720 457.000
15.70944 495.000
15.87168 490.000
16.03392 688.000
16.19616 1010.000
16.35841 3129.000
16.52065 1704.000
16.68289 2106.000
16.84513 2564.000
17.00737 2735.000
17.16961 3781.000
17.33185 1147.000
17.49409 729.000
17.65633 917.000
17.81857 1192.000
17.98081 3431.000
18.14305 6118.000
18.30530 1648.000
18.46754 1350.000
18.62978 2773.000
18.79202 2474.000
18.95426 1441.000
19.11650 1318.000
19.27874 1141.000
19.44098 2845.000
19.60322 2857.000
19.76546 2140.000
19.92770 4147.000
20.08995 2381.000
20.25219 3097.000
20.41443 3032.000
20.57667 1231.000
20.73891 901.000
20.90115 953.000
21.06339 1356.000
21.22563 2679.000
21.38787 7064.000
21.55011 9957.000
21.71235 5981.000
21.87459 1576.000
22.03684 963.000
22.19908 935.000
22.36132 1104.000
22.52356 1500.000
22.68580 1106.000
22.84804 1454.000
23.01028 1510.000
23.17252 1029.000
23.33476 1532.000
23.49700 3087.000
23.65924 2141.000
23.82148 1406.000
23.98373 961.000
24.14597 931.000
24.30821 1625.000
24.47045 1841.000
24.63269 1035.000
24.79493 1187.000
24.95717 943.000
25.11941 1456.000
25.28165 1694.000
25.44389 1391.000
25.60613 943.000
25.76837 809.000
25.93062 1273.000
26.09286 1750.000
26.25510 1139.000
26.41734 1247.000
26.57958 1592.000
26.74182 1273.000
26.90406 1658.000
27.06630 1603.000
27.22854 1251.000
27.39078 1257.000
27.55302 1086.000
27.71526 642.000
27.87751 574.000
28.03975 586.000
28.20199 712.000
28.36423 1009.000
28.52647 1196.000
28.68871 963.000
28.85095 832.000
29.01319 1034.000
29.17543 995.000
29.33767 974.000
29.49991 895.000
29.66216 953.000
29.82440 1071.000
29.98664 1025.000
30.14888 854.000
30.31112 749.000
30.47336 835.000
30.63560 551.000
30.79784 537.000
30.96008 632.000
31.12232 756.000
31.28456 655.000
31.44680 561.000
31.60905 607.000
31.77129 693.000
31.93353 698.000
32.09577 638.000
32.25801 572.000
32.42025 543.000
32.58249 474.000
32.74473 564.000
32.90697 633.000
33.06921 700.000
33.23145 639.000
33.39369 661.000
33.55594 567.000
33.71818 541.000
33.88042 588.000
34.04266 653.000
34.20490 705.000
34.36714 780.000
34.52938 1074.000
34.69162 989.000
34.85386 902.000
35.01610 875.000
35.17834 751.000
35.34058 590.000
35.50283 656.000
35.66507 583.000
35.82731 517.000
35.98955 507.000
36.15179 601.000
36.31403 568.000
36.47627 663.000
36.63851 832.000
36.80075 851.000
36.96299 714.000
37.12523 666.000
37.28748 614.000
37.44972 612.000
37.61196 593.000
37.77420 638.000
37.93644 721.000
38.09868 700.000
38.26092 542.000
38.42316 599.000
38.58540 540.000
38.74764 524.000
38.90988 494.000
39.07212 528.000
39.23437 570.000
39.39661 582.000
39.55885 664.000
39.72109 620.000
39.88333 582.000
40.04557 661.000
40.20781 742.000
40.37005 775.000
40.53229 667.000
40.69453 618.000
40.85677 543.000
41.01901 543.000
41.18126 610.000
41.34350 620.000
41.50574 719.000
41.66798 732.000
41.83022 733.000
41.99246 549.000
42.15470 502.000
42.31694 473.000
42.47918 495.000
42.64142 433.000
42.80366 472.000
42.96590 489.000
43.12815 566.000
43.29039 674.000
43.45263 604.000
43.61487 692.000
43.77711 671.000
43.93935 694.000
44.10159 708.000
44.26383 577.000
44.42607 475.000
44.58831 541.000
44.75055 562.000
44.91280 563.000
45.07504 608.000
45.23728 534.000
45.39952 507.000
45.56176 563.000
45.72400 549.000
45.88624 581.000
46.04848 487.000
46.21072 513.000
46.37296 531.000
46.53520 568.000
46.69744 550.000
46.85969 534.000
47.02193 522.000
47.18417 545.000
47.34641 621.000
47.50865 584.000
47.67089 547.000
47.83313 558.000
47.99537 507.000
48.15761 453.000
48.31985 459.000
48.48209 440.000
48.64433 419.000
48.80658 431.000
48.96882 433.000
49.13106 473.000
49.29330 443.000
49.45554 455.000
49.61778 453.000
49.78002 478.000
49.94226 471.000
50.10450 440.000
50.26674 519.000
50.42898 558.000
50.59122 527.000
50.75347 477.000
50.91571 439.000
50.99683 451.000

File: 2031_RVR_10ul_IPA_5m.xy
5.00155 869.000
5.16379 816.000
5.32603 728.000
5.48827 658.000
5.65051 646.000
5.81275 604.000
5.97499 554.000
6.13723 527.000
6.29947 573.000
6.46171 649.000
6.62395 1252.000
6.78620 5183.000
6.94844 2536.000
7.11068 649.000
7.27292 520.000
7.43516 462.000
7.59740 502.000
7.75964 507.000
7.92188 488.000
8.08412 684.000
8.24636 1947.000
8.40860 6359.000
8.57084 1286.000
8.73309 717.000
8.89533 504.000
9.05757 504.000
9.21981 438.000
9.38205 472.000
9.54429 502.000
9.70653 477.000
9.86877 573.000
10.03101 432.000
10.19325 447.000
10.35549 483.000
10.51773 985.000
10.67998 741.000
10.84222 499.000
11.00446 480.000
11.16670 420.000
11.32894 376.000
11.49118 403.000
11.65342 353.000
11.81566 400.000
11.97790 372.000
12.14014 369.000
12.30238 335.000
12.46463 389.000
12.62687 395.000
12.78911 409.000
12.95135 472.000
13.11359 579.000
13.27583 975.000
13.43807 1160.000
13.60031 1709.000
13.76255 813.000
13.92479 503.000
14.08703 406.000
14.24927 474.000
14.41152 556.000
14.57376 981.000
14.73600 2290.000
14.89824 1433.000
15.06048 877.000
15.22272 514.000
15.38496 483.000
15.54720 508.000
15.70944 503.000
15.87168 536.000
16.03392 725.000
16.19616 994.000
16.35841 3109.000
16.52065 2275.000
16.68289 2371.000
16.84513 3154.000
17.00737 2654.000
17.16961 4776.000
17.33185 1456.000
17.49409 857.000
17.65633 927.000
17.81857 1378.000
17.98081 3076.000
18.14305 7118.000
18.30530 2295.000
18.46754 1527.000
18.62978 2619.000
18.79202 3235.000
18.95426 1680.000
19.11650 1708.000
19.27874 1261.000
19.44098 2697.000
19.60322 3847.000
19.76546 2221.000
19.92770 4392.000
20.08995 2828.000
20.25219 3472.000
20.41443 4245.000
20.57667 1498.000
20.73891 1078.000
20.90115 1056.000
21.06339 1442.000
21.22563 2686.000
21.38787 6976.000
21.55011 10727.000
21.71235 7915.000
21.87459 2299.000
22.03684 1208.000
22.19908 1008.000
22.36132 1136.000
22.52356 1638.000
22.68580 1208.000
22.84804 1403.000
23.01028 1637.000
23.17252 1106.000
23.33476 1472.000
23.49700 2992.000
23.65924 2805.000
23.82148 1700.000
23.98373 1148.000
24.14597 1023.000
24.30821 1558.000
24.47045 2234.000
24.63269 1108.000
24.79493 1363.000
24.95717 998.000
25.11941 1430.000
25.28165 1921.000
25.44389 1572.000
25.60613 1171.000
25.76837 918.000
25.93062 1264.000
26.09286 1871.000
26.25510 1421.000
26.41734 1312.000
26.57958 1619.000
26.74182 1485.000
26.90406 1660.000
27.06630 1764.000
27.22854 1292.000
27.39078 1243.000
27.55302 1358.000
27.71526 755.000
27.87751 605.000
28.03975 590.000
28.20199 689.000
28.36423 991.000
28.52647 1268.000
28.68871 1137.000
28.85095 831.000
29.01319 1059.000
29.17543 1147.000
29.33767 1026.000
29.49991 978.000
29.66216 1049.000
29.82440 1144.000
29.98664 1076.000
30.14888 921.000
30.31112 793.000
30.47336 922.000
30.63560 643.000
30.79784 604.000
30.96008 638.000
31.12232 792.000
31.28456 710.000
31.44680 586.000
31.60905 684.000
31.77129 694.000
31.93353 749.000
32.09577 762.000
32.25801 701.000
32.42025 601.000
32.58249 563.000
32.74473 614.000
32.90697 668.000
33.06921 688.000
33.23145 714.000
33.39369 819.000
33.55594 620.000
33.71818 557.000
33.88042 597.000
34.04266 662.000
34.20490 705.000
34.36714 805.000
34.52938 1147.000
34.69162 1190.000
34.85386 861.000
35.01610 911.000
35.17834 764.000
35.34058 667.000
35.50283 646.000
35.66507 596.000
35.82731 574.000
35.98955 515.000
36.15179 579.000
36.31403 636.000
36.47627 722.000
36.63851 848.000
36.80075 861.000
36.96299 813.000
37.12523 717.000
37.28748 655.000
37.44972 611.000
37.61196 648.000
37.77420 649.000
37.93644 710.000
38.09868 749.000
38.26092 636.000
38.42316 586.000
38.58540 563.000
38.74764 532.000
38.90988 521.000
39.07212 520.000
39.23437 542.000
39.39661 632.000
39.55885 683.000
39.72109 753.000
39.88333 649.000
40.04557 655.000
40.20781 733.000
40.37005 752.000
40.53229 732.000
40.69453 614.000
40.85677 536.000
41.01901 564.000
41.18126 564.000
41.34350 628.000
41.50574 769.000
41.66798 733.000
41.83022 788.000
41.99246 620.000
42.15470 532.000
42.31694 533.000
42.47918 501.000
42.64142 478.000
42.80366 474.000
42.96590 514.000
43.12815 582.000
43.29039 657.000
43.45263 661.000
43.61487 661.000
43.77711 658.000
43.93935 699.000
44.10159 652.000
44.26383 624.000
44.42607 574.000
44.58831 504.000
44.75055 530.000
44.91280 537.000
45.07504 555.000
45.23728 543.000
45.39952 544.000
45.56176 575.000
45.72400 537.000
45.88624 550.000
46.04848 508.000
46.21072 540.000
46.37296 592.000
46.53520 569.000
46.69744 564.000
46.85969 501.000
47.02193 512.000
47.18417 527.000
47.34641 593.000
47.50865 557.000
47.67089 579.000
47.83313 521.000
47.99537 510.000
48.15761 490.000
48.31985 509.000
48.48209 467.000
48.64433 462.000
48.80658 413.000
48.96882 454.000
49.13106 407.000
49.29330 485.000
49.45554 474.000
49.61778 484.000
49.78002 459.000
49.94226 467.000
50.10450 476.000
50.26674 527.000
50.42898 586.000
50.59122 525.000
50.75347 478.000
50.91571 488.000
50.99683 470.000

File: 2033_RVR_10ul_IPA_1m.xy
5.00155 856.000
5.16379 788.000
5.32603 742.000
5.48827 659.000
5.65051 666.000
5.81275 645.000
5.97499 582.000
6.13723 561.000
6.29947 551.000
6.46171 698.000
6.62395 1605.000
6.78620 6334.000
6.94844 1118.000
7.11068 659.000
7.27292 460.000
7.43516 450.000
7.59740 446.000
7.75964 486.000
7.92188 435.000
8.08412 731.000
8.24636 2472.000
8.40860 5695.000
8.57084 924.000
8.73309 585.000
8.89533 441.000
9.05757 445.000
9.21981 433.000
9.38205 443.000
9.54429 464.000
9.70653 407.000
9.86877 626.000
10.03101 431.000
10.19325 403.000
10.35549 448.000
10.51773 1270.000
10.67998 527.000
10.84222 448.000
11.00446 469.000
11.16670 350.000
11.32894 397.000
11.49118 355.000
11.65342 354.000
11.81566 350.000
11.97790 342.000
12.14014 369.000
12.30238 362.000
12.46463 345.000
12.62687 367.000
12.78911 369.000
12.95135 413.000
13.11359 674.000
13.27583 966.000
13.43807 1113.000
13.60031 1469.000
13.76255 609.000
13.92479 388.000
14.08703 454.000
14.24927 459.000
14.41152 510.000
14.57376 1227.000
14.73600 1545.000
14.89824 1456.000
15.06048 581.000
15.22272 460.000
15.38496 430.000
15.54720 460.000
15.70944 441.000
15.87168 517.000
16.03392 709.000
16.19616 977.000
16.35841 3579.000
16.52065 1489.000
16.68289 2180.000
16.84513 2649.000
17.00737 2822.000
17.16961 3497.000
17.33185 1131.000
17.49409 735.000
17.65633 872.000
17.81857 1183.000
17.98081 3680.000
18.14305 6170.000
18.30530 1560.000
18.46754 1251.000
18.62978 3082.000
18.79202 2129.000
18.95426 1420.000
19.11650 1398.000
19.27874 1145.000
19.44098 3009.000
19.60322 2996.000
19.76546 2098.000
19.92770 4483.000
20.08995 2287.000
20.25219 3306.000
20.41443 3161.000
20.57667 1355.000
20.73891 878.000
20.90115 946.000
21.06339 1351.000
21.22563 2581.000
21.38787 7738.000
21.55011 10471.000
21.71235 6092.000
21.87459 1376.000
22.03684 969.000
22.19908 927.000
22.36132 1142.000
22.52356 1549.000
22.68580 1035.000
22.84804 1382.000
23.01028 1568.000
23.17252 962.000
23.33476 1565.000
23.49700 3592.000
23.65924 2010.000
23.82148 1404.000
23.98373 957.000
24.14597 883.000
24.30821 1600.000
24.47045 2095.000
24.63269 1050.000
24.79493 1258.000
24.95717 898.000
25.11941 1590.000
25.28165 1828.000
25.44389 1406.000
25.60613 919.000
25.76837 838.000
25.93062 1221.000
26.09286 1911.000
26.25510 1176.000
26.41734 1244.000
26.57958 1717.000
26.74182 1302.000
26.90406 1565.000
27.06630 1651.000
27.22854 1189.000
27.39078 1305.000
27.55302 1171.000
27.71526 631.000
27.87751 582.000
28.03975 563.000
28.20199 681.000
28.36423 937.000
28.52647 1289.000
28.68871 955.000
28.85095 853.000
29.01319 1104.000
29.17543 1037.000
29.33767 983.000
29.49991 894.000
29.66216 953.000
29.82440 1089.000
29.98664 1060.000
30.14888 862.000
30.31112 704.000
30.47336 907.000
30.63560 561.000
30.79784 530.000
30.96008 601.000
31.12232 785.000
31.28456 645.000
31.44680 572.000
31.60905 655.000
31.77129 677.000
31.93353 764.000
32.09577 696.000
32.25801 590.000
32.42025 544.000
32.58249 485.000
32.74473 592.000
32.90697 598.000
33.06921 687.000
33.23145 657.000
33.39369 750.000
33.55594 582.000
33.71818 562.000
33.88042 597.000
34.04266 682.000
34.20490 618.000
34.36714 714.000
34.52938 1131.000
34.69162 1042.000
34.85386 879.000
35.01610 902.000
35.17834 674.000
35.34058 650.000
35.50283 598.000
35.66507 640.000
35.82731 503.000
35.98955 460.000
36.15179 597.000
36.31403 653.000
36.47627 650.000
36.63851 814.000
36.80075 875.000
36.96299 774.000
37.12523 749.000
37.28748 636.000
37.44972 568.000
37.61196 578.000
37.77420 669.000
37.93644 709.000
38.09868 753.000
38.26092 576.000
38.42316 627.000
38.58540 548.000
38.74764 501.000
38.90988 489.000
39.07212 530.000
39.23437 531.000
39.39661 641.000
39.55885 657.000
39.72109 714.000
39.88333 632.000
40.04557 684.000
40.20781 782.000
40.37005 759.000
40.53229 679.000
40.69453 530.000
40.85677 527.000
41.01901 561.000
41.18126 569.000
41.34350 684.000
41.50574 704.000
41.66798 730.000
41.83022 718.000
41.99246 546.000
42.15470 503.000
42.31694 453.000
42.47918 490.000
42.64142 427.000
42.80366 461.000
42.96590 500.000
43.12815 576.000
43.29039 663.000
43.45263 648.000
43.61487 679.000
43.77711 644.000
43.93935 710.000
44.10159 689.000
44.26383 610.000
44.42607 559.000
44.58831 505.000
44.75055 538.000
44.91280 547.000
45.07504 531.000
45.23728 508.000
45.39952 514.000
45.56176 524.000
45.72400 560.000
45.88624 535.000
46.04848 502.000
46.21072 516.000
46.37296 571.000
46.53520 549.000
46.69744 582.000
46.85969 525.000
47.02193 506.000
47.18417 536.000
47.34641 627.000
47.50865 593.000
47.67089 531.000
47.83313 508.000
47.99537 487.000
48.15761 462.000
48.31985 481.000
48.48209 490.000
48.64433 482.000
48.80658 450.000
48.96882 439.000
49.13106 426.000
49.29330 475.000
49.45554 440.000
49.61778 437.000
49.78002 457.000
49.94226 474.000
50.10450 460.000
50.26674 545.000
50.42898 555.000
50.59122 483.000
50.75347 472.000
50.91571 444.000
50.99683 456.000

File: RVR_10ul_IPA_30m.xy
5.00155 649.000
5.16379 610.000
5.32603 599.000
5.48827 559.000
5.65051 519.000
5.81275 508.000
5.97499 516.000
6.13723 550.000
6.29947 526.000
6.46171 596.000
6.62395 1079.000
6.78620 4792.000
6.94844 4718.000
7.11068 701.000
7.27292 526.000
7.43516 471.000
7.59740 479.000
7.75964 468.000
7.92188 493.000
8.08412 603.000
8.24636 1735.000
8.40860 6818.000
8.57084 1539.000
8.73309 710.000
8.89533 562.000
9.05757 520.000
9.21981 459.000
9.38205 452.000
9.54429 522.000
9.70653 466.000
9.86877 533.000
10.03101 491.000
10.19325 437.000
10.35549 463.000
10.51773 819.000
10.67998 1070.000
10.84222 528.000
11.00446 491.000
11.16670 380.000
11.32894 405.000
11.49118 412.000
11.65342 394.000
11.81566 388.000
11.97790 399.000
12.14014 418.000
12.30238 409.000
12.46463 419.000
12.62687 419.000
12.78911 442.000
12.95135 424.000
13.11359 571.000
13.27583 1121.000
13.43807 1302.000
13.60031 2038.000
13.76255 1021.000
13.92479 542.000
14.08703 504.000
14.24927 495.000
14.41152 543.000
14.57376 943.000
14.73600 2955.000
14.89824 1400.000
15.06048 1211.000
15.22272 556.000
15.38496 532.000
15.54720 548.000
15.70944 520.000
15.87168 623.000
16.03392 706.000
16.19616 937.000
16.35841 3055.000
16.52065 3193.000
16.68289 2604.000
16.84513 3906.000
17.00737 2366.000
17.16961 6364.000
17.33185 1953.000
17.49409 931.000
17.65633 971.000
17.81857 1281.000
17.98081 2484.000
18.14305 9157.000
18.30530 3524.000
18.46754 1571.000
18.62978 2497.000
18.79202 4566.000
18.95426 1891.000
19.11650 2183.000
19.27874 1263.000
19.44098 2371.000
19.60322 5323.000
19.76546 2330.000
19.92770 4581.000
20.08995 3711.000
20.25219 3774.000
20.41443 5829.000
20.57667 1711.000
20.73891 1256.000
20.90115 1127.000
21.06339 1396.000
21.22563 2537.000
21.38787 6536.000
21.55011 13019.000
21.71235 11795.000
21.87459 3273.000
22.03684 1432.000
22.19908 1138.000
22.36132 1258.000
22.52356 1893.000
22.68580 1438.000
22.84804 1561.000
23.01028 1996.000
23.17252 1396.000
23.33476 1520.000
23.49700 3306.000
23.65924 4134.000
23.82148 2121.000
23.98373 1425.000
24.14597 1087.000
24.30821 1609.000
24.47045 3186.000
24.63269 1364.000
24.79493 1643.000
24.95717 1097.000
25.11941 1458.000
25.28165 2371.000
25.44389 1745.000
25.60613 1464.000
25.76837 984.000
25.93062 1336.000
26.09286 2228.000
26.25510 1736.000
26.41734 1455.000
26.57958 1972.000
26.74182 1822.000
26.90406 1751.000
27.06630 2333.000
27.22854 1747.000
27.39078 1558.000
27.55302 1679.000
27.71526 1010.000
27.87751 760.000
28.03975 697.000
28.20199 777.000
28.36423 1089.000
28.52647 1521.000
28.68871 1432.000
28.85095 1050.000
29.01319 1222.000
29.17543 1418.000
29.33767 1170.000
29.49991 1168.000
29.66216 1144.000
29.82440 1357.000
29.98664 1431.000
30.14888 1294.000
30.31112 899.000
30.47336 1149.000
30.63560 879.000
30.79784 683.000
30.96008 734.000
31.12232 940.000
31.28456 935.000
31.44680 714.000
31.60905 695.000
31.77129 812.000
31.93353 931.000
32.09577 868.000
32.25801 763.000
32.42025 708.000
32.58249 646.000
32.74473 703.000
32.90697 704.000
33.06921 901.000
33.23145 832.000
33.39369 955.000
33.55594 804.000
33.71818 655.000
33.88042 639.000
34.04266 840.000
34.20490 851.000
34.36714 938.000
34.52938 1271.000
34.69162 1500.000
34.85386 1094.000
35.01610 1158.000
35.17834 969.000
35.34058 792.000
35.50283 746.000
35.66507 739.000
35.82731 680.000
35.98955 601.000
36.15179 633.000
36.31403 734.000
36.47627 831.000
36.63851 971.000
36.80075 1156.000
36.96299 1052.000
37.12523 884.000
37.28748 822.000
37.44972 707.000
37.61196 707.000
37.77420 789.000
37.93644 846.000
38.09868 924.000
38.26092 704.000
38.42316 758.000
38.58540 748.000
38.74764 641.000
38.90988 680.000
39.07212 655.000
39.23437 672.000
39.39661 751.000
39.55885 798.000
39.72109 907.000
39.88333 771.000
40.04557 782.000
40.20781 972.000
40.37005 979.000
40.53229 946.000
40.69453 772.000
40.85677 684.000
41.01901 672.000
41.18126 635.000
41.34350 767.000
41.50574 890.000
41.66798 827.000
41.83022 986.000
41.99246 817.000
42.15470 631.000
42.31694 612.000
42.47918 616.000
42.64142 556.000
42.80366 606.000
42.96590 619.000
43.12815 619.000
43.29039 779.000
43.45263 824.000
43.61487 797.000
43.77711 827.000
43.93935 925.000
44.10159 849.000
44.26383 760.000
44.42607 661.000
44.58831 655.000
44.75055 678.000
44.91280 696.000
45.07504 720.000
45.23728 587.000
45.39952 660.000
45.56176 640.000
45.72400 661.000
45.88624 665.000
46.04848 605.000
46.21072 659.000
46.37296 646.000
46.53520 702.000
46.69744 686.000
46.85969 647.000
47.02193 631.000
47.18417 637.000
47.34641 680.000
47.50865 734.000
47.67089 735.000
47.83313 645.000
47.99537 663.000
48.15761 640.000
48.31985 529.000
48.48209 543.000
48.64433 593.000
48.80658 547.000
48.96882 537.000
49.13106 541.000
49.29330 511.000
49.45554 563.000
49.61778 541.000
49.78002 574.000
49.94226 578.000
50.00310 550.000