Folder: python_study_group/Task01/nick/files/ESI_material_XRD/kinetics/crystal_size_analysis/20ul IPA

Note: Task01/nick/files/ESI_material_XRD/kinetics/crystal_size_analysis/20ul IPA/output_quant_size_all.txt
file_name	Rwp	chisq	wtpc_Form1	wtpc_Form1_esd	wtpc_Form2	wtpc_Form2_esd	CS_L_Form1	CS_L_Form1_esd	CS_L_Form2	CS_L_Form2_esd	use_(Y_or_N)	comments	
2034_RVR_20ul_IPA_1m.xy	      11.91	      3.800	       85.1	        0.5	       14.9	        0.5	75.938831	1.207727	106.326760	8.982984	
2032_RVR_20ul_IPA_5m.xy	      11.99	      4.175	       77.7	        0.4	       22.3	        0.4	73.912576	1.129023	89.047039	4.457885	
2045_RVR_20ul_IPA_15m.xy	      10.16	      3.277	       56.2	        0.5	       43.8	        0.5	63.211449	1.416642	66.508321	1.990856	
2030_RVR_20ul_IPA_30m.xy	       9.81	      3.115	       57.0	        0.5	       43.0	        0.5	56.494256	1.256252	59.937195	1.856476	
RVR_IPA_20uL.xy	      11.67	      4.108	       59.3	        0.5	       40.7	        0.5	69.734899	1.545384	90.365748	3.018504

Note: README.md
# Python Study Group 15

## Task 01: Recursively remove unwanted files from a directory

File: 2030_RVR_20ul_IPA_30m.xy
5.00155 865.000
5.16379 752.000
5.32603 709.000
5.48827 678.000
5.65051 632.000
5.81275 627.000
5.97499 561.000
6.13723 578.000
6.29947 578.000
6.46171 686.000
6.62395 918.000
6.78620 2976.000
6.94844 1529.000
7.11068 551.000
7.27292 424.000
7.43516 434.000
7.59740 410.000
7.75964 397.000
7.92188 456.000
8.08412 576.000
8.24636 1304.000
8.40860 3644.000
8.57084 1607.000
8.73309 1357.000
8.89533 543.000
9.05757 458.000
9.21981 509.000
9.38205 765.000
9.54429 1128.000
9.70653 709.000
9.86877 1417.000
10.03101 662.000
10.19325 483.000
10.35549 483.000
10.51773 730.000
10.67998 648.000
10.84222 614.000
11.00446 1009.000
11.16670 423.000
11.32894 367.000
11.49118 399.000
11.65342 339.000
11.81566 387.000
11.97790 359.000
12.14014 378.000
12.30238 379.000
12.46463 354.000
12.62687 359.000
12.78911 359.000
12.95135 441.000
13.11359 593.000
13.27583 913.000
13.43807 858.000
13.60031 1360.000
13.76255 1329.000
13.92479 706.000
14.08703 423.000
14.24927 459.000
14.41152 484.000
14.57376 768.000
14.73600 1258.000
14.89824 1047.000
15.06048 629.000
15.22272 471.000
15.38496 454.000
15.54720 570.000
15.70944 677.000
15.87168 705.000
16.03392 1274.000
16.19616 1295.000
16.35841 2173.000
16.52065 1851.000
16.68289 2352.000
16.84513 2130.000
17.00737 1790.000
17.16961 2929.000
17.33185 2014.000
17.49409 1267.000
17.65633 1552.000
17.81857 3312.000
17.98081 2387.000
18.14305 4352.000
18.30530 3067.000
18.46754 2560.000
18.62978 1996.000
18.79202 2319.000
18.95426 2071.000
19.11650 1556.000
19.27874 1269.000
19.44098 2461.000
19.60322 3162.000
19.76546 2361.000
19.92770 3653.000
20.08995 3180.000
20.25219 2761.000
20.41443 3100.000
20.57667 2080.000
20.73891 1659.000
20.90115 1118.000
21.06339 1212.000
21.22563 2005.000
21.38787 4648.000
21.55011 7327.000
21.71235 5943.000
21.87459 1847.000
22.03684 1220.000
22.19908 1481.000
22.36132 1147.000
22.52356 1335.000
22.68580 1267.000
22.84804 1350.000
23.01028 1285.000
23.17252 965.000
23.33476 1285.000
23.49700 2335.000
23.65924 1942.000
23.82148 1366.000
23.98373 1187.000
24.14597 1159.000
24.30821 1372.000
24.47045 1796.000
24.63269 1025.000
24.79493 1284.000
24.95717 1001.000
25.11941 1224.000
25.28165 1803.000
25.44389 1660.000
25.60613 1082.000
25.76837 929.000
25.93062 1215.000
26.09286 1659.000
26.25510 1382.000
26.41734 1392.000
26.57958 1306.000
26.74182 1190.000
26.90406 1365.000
27.06630 1268.000
27.22854 1025.000
27.39078 1053.000
27.55302 1103.000
27.71526 651.000
27.87751 552.000
28.03975 581.000
28.20199 672.000
28.36423 907.000
28.52647 1230.000
28.68871 1233.000
28.85095 931.000
29.01319 906.000
29.17543 861.000
29.33767 863.000
29.49991 820.000
29.66216 873.000
29.82440 1234.000
29.98664 1125.000
30.14888 1005.000
30.31112 873.000
30.47336 864.000
30.63560 559.000
30.79784 594.000
30.96008 657.000
31.12232 780.000
31.28456 780.000
31.44680 755.000
31.60905 821.000
31.77129 870.000
31.93353 801.000
32.09577 774.000
32.25801 634.000
32.42025 623.000
32.58249 569.000
32.74473 602.000
32.90697 581.000
33.06921 711.000
33.23145 705.000
33.39369 722.000
33.55594 632.000
33.71818 595.000
33.88042 571.000
34.04266 606.000
34.20490 635.000
34.36714 687.000
34.52938 785.000
34.69162 869.000
34.85386 773.000
35.01610 826.000
35.17834 752.000
35.34058 582.000
35.50283 622.000
35.66507 629.000
35.82731 556.000
35.98955 565.000
36.15179 718.000
36.31403 713.000
36.47627 682.000
36.63851 765.000
36.80075 767.000
36.96299 637.000
37.12523 639.000
37.28748 653.000
37.44972 627.000
37.61196 540.000
37.77420 548.000
37.93644 675.000
38.09868 633.000
38.26092 601.000
38.42316 594.000
38.58540 580.000
38.74764 518.000
38.90988 549.000
39.07212 562.000
39.23437 560.000
39.39661 545.000
39.55885 603.000
39.72109 639.000
39.88333 559.000
40.04557 617.000
40.20781 682.000
40.37005 711.000
40.53229 765.000
40.69453 640.000
40.85677 502.000
41.01901 538.000
41.18126 560.000
41.34350 576.000
41.50574 600.000
41.66798 643.000
41.83022 645.000
41.99246 560.000
42.15470 459.000
42.31694 462.000
42.47918 485.000
42.64142 472.000
42.80366 470.000
42.96590 500.000
43.12815 532.000
43.29039 575.000
43.45263 560.000
43.61487 599.000
43.77711 618.000
43.93935 609.000
44.10159 644.000
44.26383 573.000
44.42607 577.000
44.58831 601.000
44.75055 533.000
44.91280 594.000
45.07504 538.000
45.23728 513.000
45.39952 501.000
45.56176 544.000
45.72400 560.000
45.88624 531.000
46.04848 530.000
46.21072 509.000
46.37296 516.000
46.53520 571.000
46.69744 586.000
46.85969 515.000
47.02193 500.000
47.18417 517.000
47.34641 580.000
47.50865 530.000
47.67089 541.000
47.83313 521.000
47.99537 507.000
48.15761 473.000
48.31985 475.000
48.48209 460.000
48.64433 442.000
48.80658 468.000
48.96882 475.000
49.13106 464.000
49.29330 456.000
49.45554 406.000
49.61778 464.000
49.78002 469.000
49.94226 437.000
50.10450 466.000
50.26674 497.000
50.42898 505.000
50.59122 493.000
50.75347 500.000
50.91571 431.000
50.99683 462.000

File: 2032_RVR_20ul_IPA_5m.xy
5.00155 969.000
5.16379 793.000
5.32603 783.000
5.48827 679.000
5.65051 592.000
5.81275 578.000
5.97499 586.000
6.13723 513.000
6.29947 515.000
6.46171 672.000
6.62395 1108.000
6.78620 5230.000
6.94844 2318.000
7.11068 636.000
7.27292 505.000
7.43516 466.000
7.59740 449.000
7.75964 457.000
7.92188 443.000
8.08412 652.000
8.24636 1721.000
8.40860 6914.000
8.57084 1479.000
8.73309 1083.000
8.89533 552.000
9.05757 440.000
9.21981 493.000
9.38205 619.000
9.54429 1054.000
9.70653 519.000
9.86877 1406.000
10.03101 523.000
10.19325 470.000
10.35549 445.000
10.51773 1011.000
10.67998 758.000
10.84222 621.000
11.00446 925.000
11.16670 439.000
11.32894 381.000
11.49118 352.000
11.65342 372.000
11.81566 378.000
11.97790 361.000
12.14014 349.000
12.30238 387.000
12.46463 413.000
12.62687 378.000
12.78911 391.000
12.95135 465.000
13.11359 625.000
13.27583 1124.000
13.43807 1139.000
13.60031 1857.000
13.76255 1308.000
13.92479 612.000
14.08703 458.000
14.24927 487.000
14.41152 521.000
14.57376 993.000
14.73600 2161.000
14.89824 1411.000
15.06048 717.000
15.22272 488.000
15.38496 451.000
15.54720 537.000
15.70944 661.000
15.87168 623.000
16.03392 1156.000
16.19616 1131.000
16.35841 3452.000
16.52065 2086.000
16.68289 2966.000
16.84513 3196.000
17.00737 2295.000
17.16961 4913.000
17.33185 2152.000
17.49409 1020.000
17.65633 1209.000
17.81857 2907.000
17.98081 3083.000
18.14305 7971.000
18.30530 2815.000
18.46754 2292.000
18.62978 2729.000
18.79202 3288.000
18.95426 2084.000
19.11650 1782.000
19.27874 1227.000
19.44098 3106.000
19.60322 3964.000
19.76546 2521.000
19.92770 4930.000
20.08995 3406.000
20.25219 3451.000
20.41443 4392.000
20.57667 1890.000
20.73891 1574.000
20.90115 1165.000
21.06339 1258.000
21.22563 2446.000
21.38787 6823.000
21.55011 11454.000
21.71235 8778.000
21.87459 2127.000
22.03684 1216.000
22.19908 1445.000
22.36132 1252.000
22.52356 1709.000
22.68580 1359.000
22.84804 1602.000
23.01028 1649.000
23.17252 1036.000
23.33476 1529.000
23.49700 3396.000
23.65924 2793.000
23.82148 1697.000
23.98373 1220.000
24.14597 1253.000
24.30821 1692.000
24.47045 2568.000
24.63269 1188.000
24.79493 1589.000
24.95717 1044.000
25.11941 1488.000
25.28165 2310.000
25.44389 1731.000
25.60613 1221.000
25.76837 1011.000
25.93062 1314.000
26.09286 2230.000
26.25510 1515.000
26.41734 1381.000
26.57958 1850.000
26.74182 1509.000
26.90406 1706.000
27.06630 1766.000
27.22854 1383.000
27.39078 1226.000
27.55302 1394.000
27.71526 772.000
27.87751 679.000
28.03975 637.000
28.20199 699.000
28.36423 1025.000
28.52647 1472.000
28.68871 1432.000
28.85095 949.000
29.01319 1047.000
29.17543 1140.000
29.33767 1071.000
29.49991 975.000
29.66216 1080.000
29.82440 1408.000
29.98664 1282.000
30.14888 1171.000
30.31112 948.000
30.47336 1010.000
30.63560 666.000
30.79784 599.000
30.96008 679.000
31.12232 909.000
31.28456 907.000
31.44680 697.000
31.60905 819.000
31.77129 860.000
31.93353 857.000
32.09577 806.000
32.25801 706.000
32.42025 667.000
32.58249 581.000
32.74473 598.000
32.90697 695.000
33.06921 785.000
33.23145 810.000
33.39369 841.000
33.55594 654.000
33.71818 643.000
33.88042 626.000
34.04266 719.000
34.20490 756.000
34.36714 808.000
34.52938 1109.000
34.69162 1228.000
34.85386 966.000
35.01610 1105.000
35.17834 802.000
35.34058 726.000
35.50283 711.000
35.66507 711.000
35.82731 551.000
35.98955 599.000
36.15179 717.000
36.31403 810.000
36.47627 791.000
36.63851 836.000
36.80075 895.000
36.96299 824.000
37.12523 784.000
37.28748 723.000
37.44972 625.000
37.61196 653.000
37.77420 713.000
37.93644 752.000
38.09868 826.000
38.26092 680.000
38.42316 683.000
38.58540 656.000
38.74764 610.000
38.90988 602.000
39.07212 634.000
39.23437 598.000
39.39661 652.000
39.55885 707.000
39.72109 772.000
39.88333 719.000
40.04557 761.000
40.20781 868.000
40.37005 882.000
40.53229 906.000
40.69453 647.000
40.85677 608.000
41.01901 584.000
41.18126 651.000
41.34350 753.000
41.50574 746.000
41.66798 790.000
41.83022 795.000
41.99246 612.000
42.15470 530.000
42.31694 511.000
42.47918 572.000
42.64142 537.000
42.80366 554.000
42.96590 581.000
43.12815 594.000
43.29039 718.000
43.45263 706.000
43.61487 724.000
43.77711 694.000
43.93935 715.000
44.10159 747.000
44.26383 679.000
44.42607 586.000
44.58831 636.000
44.75055 654.000
44.91280 614.000
45.07504 636.000
45.23728 584.000
45.39952 565.000
45.56176 605.000
45.72400 646.000
45.88624 575.000
46.04848 590.000
46.21072 615.000
46.37296 624.000
46.53520 636.000
46.69744 646.000
46.85969 601.000
47.02193 579.000
47.18417 607.000
47.34641 669.000
47.50865 638.000
47.67089 612.000
47.83313 585.000
47.99537 586.000
48.15761 543.000
48.31985 557.000
48.48209 494.000
48.64433 522.000
48.80658 501.000
48.96882 503.000
49.13106 534.000
49.29330 499.000
49.45554 532.000
49.61778 466.000
49.78002 478.000
49.94226 480.000
50.10450 512.000
50.26674 552.000
50.42898 641.000
50.59122 596.000
50.75347 515.000
50.91571 466.000
50.99683 507.000

File: 2034_RVR_20ul_IPA_1m.xy
5.00155 909.000
5.16379 789.000
5.32603 747.000
5.48827 666.000
5.65051 601.000
5.81275 537.000
5.97499 492.000
6.13723 498.000
6.29947 516.000
6.46171 568.000
6.62395 1159.000
6.78620 5069.000
6.94844 1525.000
7.11068 520.000
7.27292 423.000
7.43516 423.000
7.59740 410.000
7.75964 354.000
7.92188 427.000
8.08412 573.000
8.24636 1774.000
8.40860 5747.000
8.57084 1165.000
8.73309 647.000
8.89533 480.000
9.05757 360.000
9.21981 392.000
9.38205 497.000
9.54429 571.000
9.70653 458.000
9.86877 942.000
10.03101 420.000
10.19325 379.000
10.35549 389.000
10.51773 1030.000
10.67998 584.000
10.84222 473.000
11.00446 567.000
11.16670 341.000
11.32894 327.000
11.49118 340.000
11.65342 299.000
11.81566 333.000
11.97790 314.000
12.14014 288.000
12.30238 329.000
12.46463 326.000
12.62687 341.000
12.78911 370.000
12.95135 355.000
13.11359 558.000
13.27583 886.000
13.43807 954.000
13.60031 1461.000
13.76255 871.000
13.92479 368.000
14.08703 391.000
14.24927 418.000
14.41152 422.000
14.57376 1034.000
14.73600 1713.000
14.89824 1287.000
15.06048 583.000
15.22272 399.000
15.38496 387.000
15.54720 390.000
15.70944 449.000
15.87168 484.000
16.03392 925.000
16.19616 992.000
16.35841 3153.000
16.52065 1614.000
16.68289 2323.000
16.84513 2594.000
17.00737 2385.000
17.16961 3728.000
17.33185 1447.000
17.49409 750.000
17.65633 987.000
17.81857 1797.000
17.98081 3010.000
18.14305 6535.000
18.30530 1895.000
18.46754 1490.000
18.62978 2596.000
18.79202 2446.000
18.95426 1598.000
19.11650 1363.000
19.27874 1036.000
19.44098 2894.000
19.60322 2957.000
19.76546 2193.000
19.92770 4192.000
20.08995 2520.000
20.25219 3153.000
20.41443 3342.000
20.57667 1411.000
20.73891 1002.000
20.90115 958.000
21.06339 1177.000
21.22563 2309.000
21.38787 6788.000
21.55011 10208.000
21.71235 6742.000
21.87459 1406.000
22.03684 1002.000
22.19908 1035.000
22.36132 1017.000
22.52356 1597.000
22.68580 1089.000
22.84804 1352.000
23.01028 1396.000
23.17252 865.000
23.33476 1419.000
23.49700 3240.000
23.65924 2095.000
23.82148 1425.000
23.98373 921.000
24.14597 973.000
24.30821 1468.000
24.47045 2051.000
24.63269 1056.000
24.79493 1167.000
24.95717 870.000
25.11941 1466.000
25.28165 1847.000
25.44389 1548.000
25.60613 939.000
25.76837 844.000
25.93062 1257.000
26.09286 1901.000
26.25510 1155.000
26.41734 1275.000
26.57958 1602.000
26.74182 1225.000
26.90406 1638.000
27.06630 1601.000
27.22854 1136.000
27.39078 1119.000
27.55302 1220.000
27.71526 595.000
27.87751 532.000
28.03975 556.000
28.20199 596.000
28.36423 915.000
28.52647 1338.000
28.68871 1017.000
28.85095 813.000
29.01319 991.000
29.17543 960.000
29.33767 929.000
29.49991 839.000
29.66216 889.000
29.82440 1179.000
29.98664 1103.000
30.14888 874.000
30.31112 790.000
30.47336 858.000
30.63560 529.000
30.79784 536.000
30.96008 592.000
31.12232 811.000
31.28456 657.000
31.44680 567.000
31.60905 710.000
31.77129 729.000
31.93353 737.000
32.09577 703.000
32.25801 614.000
32.42025 596.000
32.58249 470.000
32.74473 580.000
32.90697 574.000
33.06921 673.000
33.23145 710.000
33.39369 813.000
33.55594 561.000
33.71818 534.000
33.88042 585.000
34.04266 630.000
34.20490 679.000
34.36714 684.000
34.52938 1121.000
34.69162 1006.000
34.85386 847.000
35.01610 916.000
35.17834 681.000
35.34058 605.000
35.50283 597.000
35.66507 576.000
35.82731 519.000
35.98955 491.000
36.15179 610.000
36.31403 638.000
36.47627 672.000
36.63851 774.000
36.80075 790.000
36.96299 663.000
37.12523 674.000
37.28748 661.000
37.44972 553.000
37.61196 553.000
37.77420 609.000
37.93644 699.000
38.09868 704.000
38.26092 508.000
38.42316 618.000
38.58540 604.000
38.74764 513.000
38.90988 522.000
39.07212 562.000
39.23437 529.000
39.39661 589.000
39.55885 659.000
39.72109 632.000
39.88333 561.000
40.04557 643.000
40.20781 763.000
40.37005 730.000
40.53229 665.000
40.69453 567.000
40.85677 505.000
41.01901 577.000
41.18126 577.000
41.34350 621.000
41.50574 628.000
41.66798 700.000
41.83022 722.000
41.99246 508.000
42.15470 477.000
42.31694 495.000
42.47918 502.000
42.64142 466.000
42.80366 448.000
42.96590 502.000
43.12815 517.000
43.29039 603.000
43.45263 601.000
43.61487 601.000
43.77711 616.000
43.93935 680.000
44.10159 662.000
44.26383 628.000
44.42607 508.000
44.58831 522.000
44.75055 536.000
44.91280 588.000
45.07504 570.000
45.23728 507.000
45.39952 485.000
45.56176 503.000
45.72400 504.000
45.88624 504.000
46.04848 478.000
46.21072 484.000
46.37296 503.000
46.53520 563.000
46.69744 510.000
46.85969 523.000
47.02193 487.000
47.18417 495.000
47.34641 575.000
47.50865 585.000
47.67089 533.000
47.83313 517.000
47.99537 504.000
48.15761 469.000
48.31985 469.000
48.48209 460.000
48.64433 471.000
48.80658 454.000
48.96882 396.000
49.13106 421.000
49.29330 504.000
49.45554 486.000
49.61778 437.000
49.78002 429.000
49.94226 470.000
50.10450 411.000
50.26674 507.000
50.42898 534.000
50.59122 461.000
50.75347 471.000
50.91571 467.000
50.99683 438.000

File: 2045_RVR_20ul_IPA_15m.xy
5.00155 904.000
5.16379 807.000
5.32603 770.000
5.48827 698.000
5.65051 684.000
5.81275 642.000
5.97499 615.000
6.13723 563.000
6.29947 637.000
6.46171 725.000
6.62395 1162.000
6.78620 4240.000
6.94844 1014.000
7.11068 545.000
7.27292 486.000
7.43516 510.000
7.59740 510.000
7.75964 502.000
7.92188 503.000
8.08412 660.000
8.24636 1743.000
8.40860 3973.000
8.57084 1987.000
8.73309 1105.000
8.89533 596.000
9.05757 564.000
9.21981 535.000
9.38205 852.000
9.54429 1029.000
9.70653 782.000
9.86877 1709.000
10.03101 617.000
10.19325 488.000
10.35549 538.000
10.51773 948.000
10.67998 570.000
10.84222 817.000
11.00446 861.000
11.16670 445.000
11.32894 380.000
11.49118 402.000
11.65342 391.000
11.81566 407.000
11.97790 407.000
12.14014 390.000
12.30238 460.000
12.46463 365.000
12.62687 403.000
12.78911 414.000
12.95135 489.000
13.11359 679.000
13.27583 922.000
13.43807 937.000
13.60031 1451.000
13.76255 1321.000
13.92479 633.000
14.08703 474.000
14.24927 466.000
14.41152 568.000
14.57376 952.000
14.73600 1221.000
14.89824 1298.000
15.06048 548.000
15.22272 506.000
15.38496 552.000
15.54720 647.000
15.70944 678.000
15.87168 753.000
16.03392 1648.000
16.19616 1249.000
16.35841 2637.000
16.52065 1727.000
16.68289 2401.000
16.84513 1986.000
17.00737 2040.000
17.16961 2795.000
17.33185 2368.000
17.49409 1187.000
17.65633 2209.000
17.81857 3009.000
17.98081 2929.000
18.14305 4484.000
18.30530 3444.000
18.46754 2227.000
18.62978 2343.000
18.79202 2346.000
18.95426 2030.000
19.11650 1369.000
19.27874 1307.000
19.44098 2937.000
19.60322 2673.000
19.76546 2753.000
19.92770 3938.000
20.08995 2912.000
20.25219 2868.000
20.41443 2719.000
20.57667 2525.000
20.73891 1422.000
20.90115 1158.000
21.06339 1412.000
21.22563 2316.000
21.38787 5582.000
21.55011 7577.000
21.71235 5219.000
21.87459 1560.000
22.03684 1397.000
22.19908 1494.000
22.36132 1190.000
22.52356 1494.000
22.68580 1374.000
22.84804 1376.000
23.01028 1254.000
23.17252 954.000
23.33476 1481.000
23.49700 2481.000
23.65924 1752.000
23.82148 1400.000
23.98373 1249.000
24.14597 1230.000
24.30821 1549.000
24.47045 1644.000
24.63269 1091.000
24.79493 1324.000
24.95717 1038.000
25.11941 1357.000
25.28165 2041.000
25.44389 1578.000
25.60613 969.000
25.76837 1064.000
25.93062 1301.000
26.09286 1800.000
26.25510 1366.000
26.41734 1311.000
26.57958 1347.000
26.74182 1131.000
26.90406 1342.000
27.06630 1259.000
27.22854 1002.000
27.39078 1079.000
27.55302 1000.000
27.71526 605.000
27.87751 604.000
28.03975 630.000
28.20199 656.000
28.36423 933.000
28.52647 1430.000
28.68871 1162.000
28.85095 910.000
29.01319 903.000
29.17543 826.000
29.33767 825.000
29.49991 749.000
29.66216 1035.000
29.82440 1251.000
29.98664 1134.000
30.14888 936.000
30.31112 746.000
30.47336 736.000
30.63560 564.000
30.79784 571.000
30.96008 651.000
31.12232 806.000
31.28456 760.000
31.44680 690.000
31.60905 885.000
31.77129 820.000
31.93353 794.000
32.09577 699.000
32.25801 654.000
32.42025 634.000
32.58249 569.000
32.74473 530.000
32.90697 587.000
33.06921 779.000
33.23145 715.000
33.39369 789.000
33.55594 607.000
33.71818 625.000
33.88042 577.000
34.04266 602.000
34.20490 607.000
34.36714 665.000
34.52938 869.000
34.69162 877.000
34.85386 829.000
35.01610 879.000
35.17834 689.000
35.34058 658.000
35.50283 565.000
35.66507 572.000
35.82731 495.000
35.98955 616.000
36.15179 739.000
36.31403 762.000
36.47627 651.000
36.63851 714.000
36.80075 771.000
36.96299 635.000
37.12523 596.000
37.28748 613.000
37.44972 586.000
37.61196 565.000
37.77420 610.000
37.93644 660.000
38.09868 700.000
38.26092 576.000
38.42316 604.000
38.58540 576.000
38.74764 565.000
38.90988 581.000
39.07212 622.000
39.23437 559.000
39.39661 577.000
39.55885 649.000
39.72109 594.000
39.88333 631.000
40.04557 642.000
40.20781 710.000
40.37005 732.000
40.53229 788.000
40.69453 580.000
40.85677 542.000
41.01901 574.000
41.18126 614.000
41.34350 565.000
41.50574 599.000
41.66798 640.000
41.83022 614.000
41.99246 509.000
42.15470 462.000
42.31694 501.000
42.47918 503.000
42.64142 487.000
42.80366 501.000
42.96590 479.000
43.12815 530.000
43.29039 574.000
43.45263 573.000
43.61487 624.000
43.77711 635.000
43.93935 654.000
44.10159 589.000
44.26383 575.000
44.42607 586.000
44.58831 560.000
44.75055 548.000
44.91280 565.000
45.07504 577.000
45.23728 490.000
45.39952 517.000
45.56176 576.000
45.72400 541.000
45.88624 549.000
46.04848 536.000
46.21072 544.000
46.37296 590.000
46.53520 594.000
46.69744 593.000
46.85969 481.000
47.02193 513.000
47.18417 571.000
47.34641 542.000
47.50865 519.000
47.67089 516.000
47.83313 491.000
47.99537 515.000
48.15761 501.000
48.31985 511.000
48.48209 440.000
48.64433 485.000
48.80658 415.000
48.96882 477.000
49.13106 516.000
49.29330 463.000
49.45554 504.000
49.61778 448.000
49.78002 460.000
49.94226 464.000
50.10450 479.000
50.26674 460.000
50.42898 499.000
50.59122 508.000
50.75347 500.000
50.91571 444.000
50.99683 439.000