Folder: python_study_group/Task01/nick/files/ESI_material_XRD/kinetics/crystal_size_analysis/20ul IPA (part 2)

File: RVR_IPA_20uL.xy
4.00155 2156.000
4.12323 1844.000
4.24491 1708.000
4.36659 1529.000
4.48827 1320.000
4.60995 1149.000
4.73163 1039.000
4.85331 968.000
4.97499 922.000
5.09667 835.000
5.21835 827.000
5.34003 728.000
5.46171 683.000
5.58339 646.000
5.70507 566.000
5.82676 601.000
5.94844 537.000
6.07012 540.000
6.19180 605.000
6.31348 556.000
6.43516 644.000
6.55684 721.000
6.67852 1435.000
6.80020 3728.000
6.92188 1899.000
7.04356 582.000
7.16524 449.000
7.28692 452.000
7.40860 410.000
7.53028 428.000
7.65197 415.000
7.77365 383.000
7.89533 427.000
8.01701 474.000
8.13869 650.000
8.26037 1460.000
8.38205 4296.000
8.50373 1612.000
8.62541 2232.000
8.74709 909.000
8.86877 477.000
8.99045 443.000
9.11213 450.000
9.23381 409.000
9.35549 607.000
9.47717 1322.000
9.59886 645.000
9.72054 653.000
9.84222 1621.000
9.96390 835.000
10.08558 487.000
10.20726 396.000
10.32894 406.000
10.45062 511.000
10.57230 963.000
10.69398 534.000
10.81566 585.000
10.93734 1201.000
11.05902 550.000
11.18070 396.000
11.30238 385.000
11.42406 355.000
11.54575 385.000
11.66743 384.000
11.78911 371.000
11.91079 346.000
12.03247 339.000
12.15415 385.000
12.27583 365.000
12.39751 404.000
12.51919 383.000
12.64087 387.000
12.76255 382.000
12.88423 371.000
13.00591 487.000
13.12759 610.000
13.24927 949.000
13.37096 981.000
13.49264 965.000
13.61432 1430.000
13.73600 1535.000
13.85768 1059.000
13.97936 463.000
14.10104 425.000
14.22272 421.000
14.34440 452.000
14.46608 542.000
14.58776 855.000
14.70944 1712.000
14.83112 936.000
14.95280 1285.000
15.07448 557.000
15.19616 494.000
15.31785 465.000
15.43953 483.000
15.56121 560.000
15.68289 661.000
15.80457 646.000
15.92625 724.000
16.04793 1624.000
16.16961 1290.000
16.29129 1586.000
16.41297 2987.000
16.53465 1645.000
16.65633 2583.000
16.77801 2478.000
16.89969 1728.000
17.02137 2149.000
17.14305 3667.000
17.26474 2095.000
17.38642 2293.000
17.50810 1040.000
17.62978 1383.000
17.75146 3444.000
17.87314 2425.000
17.99482 2783.000
18.11650 5733.000
18.23818 3110.000
18.35986 3661.000
18.48154 2369.000
18.60322 1915.000
18.72490 2851.000
18.84658 2234.000
18.96826 2272.000
19.08995 1673.000
19.21163 1118.000
19.33331 1448.000
19.45499 2998.000
19.57667 3851.000
19.69835 2219.000
19.82003 3053.000
19.94171 4071.000
20.06339 3782.000
20.18507 2730.000
20.30675 3345.000
20.42843 3227.000
20.55011 2019.000
20.67179 2602.000
20.79347 1212.000
20.91515 1242.000
21.03684 1282.000
21.15852 1670.000
21.28020 2953.000
21.40188 6068.000
21.52356 8435.000
21.64524 8486.000
21.76692 4645.000
21.88860 1594.000
22.01028 1333.000
22.13196 1519.000
22.25364 1626.000
22.37532 1088.000
22.49700 1445.000
22.61868 1370.000
22.74036 1487.000
22.86204 1401.000
22.98373 1352.000
23.10541 1221.000
23.22709 996.000
23.34877 1487.000
23.47045 2629.000
23.59213 2788.000
23.71381 1742.000
23.83549 1499.000
23.95717 1222.000
24.07885 1172.000
24.20053 1279.000
24.32221 1534.000
24.44389 2196.000
24.56557 1213.000
24.68725 1227.000
24.80893 1422.000
24.93062 1054.000
25.05230 1106.000
25.17398 1592.000
25.29566 2165.000
25.41734 1898.000
25.53902 1320.000
25.66070 945.000
25.78238 1118.000
25.90406 1177.000
26.02574 1568.000
26.14742 2035.000
26.26910 1352.000
26.39078 1381.000
26.51246 1583.000
26.63414 1432.000
26.75583 1165.000
26.87751 1381.000
26.99919 1560.000
27.12087 1333.000
27.24255 1090.000
27.36423 1063.000
27.48591 1269.000
27.60759 959.000
27.72927 653.000
27.85095 594.000
27.97263 604.000
28.09431 613.000
28.21599 679.000
28.33767 854.000
28.45935 1172.000
28.58103 1545.000
28.70272 1300.000
28.82440 1086.000
28.94608 874.000
29.06776 959.000
29.18944 990.000
29.31112 901.000
29.43280 864.000
29.55448 847.000
29.67616 995.000
29.79784 1249.000
29.91952 1244.000
30.04120 1138.000
30.16288 1021.000
30.28456 853.000
30.40624 832.000
30.52792 776.000
30.64961 646.000
30.77129 585.000
30.89297 599.000
31.01465 693.000
31.13633 804.000
31.25801 772.000
31.37969 708.000
31.50137 809.000
31.62305 921.000
31.74473 897.000
31.86641 777.000
31.98809 814.000
32.10977 822.000
32.23145 660.000
32.35313 608.000
32.47482 616.000
32.59650 552.000
32.71818 586.000
32.83986 592.000
32.96154 639.000
33.08322 719.000
33.20490 748.000
33.32658 764.000
33.44826 683.000
33.56994 646.000
33.69162 638.000
33.81330 596.000
33.93498 616.000
34.05666 623.000
34.17834 671.000
34.30002 667.000
34.42171 716.000
34.54339 945.000
34.66507 961.000
34.78675 808.000
34.90843 892.000
35.03011 985.000
35.15179 778.000
35.27347 778.000
35.39515 683.000
35.51683 633.000
35.63851 598.000
35.76019 563.000
35.88187 580.000
36.00355 611.000
36.12523 749.000
36.24691 838.000
36.36860 772.000
36.49028 753.000
36.61196 753.000
36.73364 780.000
36.85532 810.000
36.97700 700.000
37.09868 691.000
37.22036 716.000
37.34204 698.000
37.46372 584.000
37.58540 619.000
37.70708 593.000
37.82876 616.000
37.95044 673.000
38.07212 749.000
38.19381 646.000
38.31549 622.000
38.43717 652.000
38.55885 635.000
38.68053 566.000
38.80221 560.000
38.92389 608.000
39.04557 673.000
39.16725 582.000
39.28893 537.000
39.41061 617.000
39.53229 709.000
39.65397 680.000
39.77565 667.000
39.89733 660.000
39.99873 626.000