Folder: python_study_group/Task01/nick/files/ESI_material_XRD/kinetics/crystal_size_analysis/50ul IPA (part 2)

File: RVR_IPA_45m.xy
5.00155 904.000
5.20232 702.000
5.40309 686.000
5.60387 630.000
5.80464 571.000
6.00541 539.000
6.20618 515.000
6.40696 910.000
6.60773 457.000
6.80850 425.000
7.00928 438.000
7.21005 422.000
7.41082 338.000
7.61160 360.000
7.81237 399.000
8.01314 347.000
8.21391 439.000
8.41469 662.000
8.61546 6922.000
8.81623 610.000
9.01701 415.000
9.21778 470.000
9.41855 1949.000
9.61933 640.000
9.82010 3298.000
10.02087 547.000
10.22165 397.000
10.42242 441.000
10.62319 420.000
10.82396 771.000
11.02474 613.000
11.22551 338.000
11.42628 337.000
11.62706 342.000
11.82783 287.000
12.02860 337.000
12.22938 338.000
12.43015 379.000
12.63092 338.000
12.83170 357.000
13.03247 408.000
13.23324 844.000
13.43401 458.000
13.63479 1559.000
13.83556 1771.000
14.03633 399.000
14.23711 396.000
14.43788 412.000
14.63865 401.000
14.83943 731.000
15.04020 399.000
15.24097 373.000
15.44174 483.000
15.64252 885.000
15.84329 642.000
16.04406 4037.000
16.24484 713.000
16.44561 1206.000
16.64638 3328.000
16.84716 664.000
17.04793 703.000
17.24870 2469.000
17.44948 1080.000
17.65025 3083.000
17.85102 1674.000
18.05179 1063.000
18.25257 3632.000
18.45334 2209.000
18.65411 963.000
18.85489 2695.000
19.05566 1359.000
19.25643 1268.000
19.45721 2783.000
19.65798 1808.000
19.85875 1925.000
20.05952 4341.000
20.26030 1550.000
20.46107 1655.000
20.66184 2537.000
20.86262 1187.000
21.06339 858.000
21.26416 1425.000
21.46494 3014.000
21.66571 6045.000
21.86648 1081.000
22.06726 1746.000
22.26803 1441.000
22.46880 910.000
22.66957 1395.000
22.87035 857.000
23.07112 1002.000
23.27189 853.000
23.47267 1538.000
23.67344 1211.000
23.87421 1142.000
24.07499 1322.000
24.27576 958.000
24.47653 829.000
24.67731 1159.000
24.87808 1025.000
25.07885 835.000
25.27962 2396.000
25.48040 1175.000
25.68117 949.000
25.88194 1023.000
26.08272 1664.000
26.28349 1184.000
26.48426 1397.000
26.68504 650.000
26.88581 916.000
27.08658 533.000
27.28735 660.000
27.48813 683.000
27.68890 483.000
27.88967 548.000
28.09045 501.000
28.29122 570.000
28.49199 1334.000
28.69277 1136.000
28.89354 536.000
29.09431 508.000
29.29509 538.000
29.49586 535.000
29.69663 930.000
29.89740 1055.000
30.09818 980.000
30.29895 744.000
30.49972 473.000
30.70050 560.000
30.90127 670.000
31.10204 584.000
31.30282 833.000
31.50359 890.000
31.70436 1116.000
31.90513 755.000
32.10591 749.000
32.30668 560.000
32.50745 489.000
32.70823 422.000
32.90900 507.000
33.10977 667.000
33.31055 497.000
33.51132 605.000
33.71209 658.000
33.91287 438.000
34.11364 417.000
34.31441 397.000
34.51518 394.000
34.71596 534.000
34.91673 710.000
35.11750 767.000
35.31828 891.000
35.51905 447.000
35.71982 382.000
35.92060 566.000
36.12137 777.000
36.32214 779.000
36.52292 488.000
36.72369 464.000
36.92446 445.000
37.12523 537.000
37.32601 528.000
37.52678 387.000
37.72755 428.000
37.92833 535.000
38.12910 471.000
38.32987 613.000
38.53065 558.000
38.73142 465.000
38.93219 651.000
39.13296 652.000
39.33374 444.000
39.53451 545.000
39.73528 460.000
39.93606 504.000
40.13683 506.000
40.33760 587.000
40.53838 818.000
40.73915 553.000
40.93992 470.000
41.14070 477.000
41.34147 482.000
41.54224 377.000
41.74301 467.000
41.94379 393.000
42.14456 395.000
42.34533 429.000
42.54611 506.000
42.74688 438.000
42.94765 451.000
43.14843 524.000
43.34920 471.000
43.54997 493.000
43.75075 518.000
43.95152 453.000
44.15229 453.000
44.35306 646.000
44.55384 611.000
44.75461 548.000
44.95538 480.000
45.15616 527.000
45.35693 486.000
45.55770 507.000
45.75848 492.000
45.95925 430.000
46.16002 535.000
46.36079 520.000
46.56157 571.000
46.76234 472.000
46.96311 431.000
47.16389 424.000
47.36466 460.000
47.56543 432.000
47.76621 453.000
47.96698 492.000
48.16775 446.000
48.36853 451.000
48.56930 378.000
48.77007 393.000
48.97084 459.000
49.17162 454.000
49.37239 420.000
49.57316 402.000
49.77394 433.000
49.97471 402.000
50.17548 383.000
50.37626 369.000
50.57703 355.000
50.77780 438.000
50.97857 375.000
51.17935 329.000
51.38012 363.000
51.58089 369.000
51.78167 441.000
51.98244 401.000
52.18321 387.000
52.38399 431.000
52.58476 389.000
52.78553 445.000
52.98631 396.000
53.18708 357.000
53.38785 377.000
53.58862 336.000
53.78940 368.000
53.99017 386.000
54.19094 327.000
54.39172 373.000
54.59249 369.000
54.79326 328.000
54.99404 353.000
55.19481 352.000
55.39558 350.000
55.59636 287.000
55.79713 292.000
55.99790 329.000
56.19867 313.000
56.39945 344.000
56.60022 368.000
56.80099 334.000
57.00177 330.000
57.20254 332.000
57.40331 367.000
57.60409 281.000
57.80486 292.000
58.00563 302.000
58.20640 301.000
58.40718 328.000
58.60795 295.000
58.80872 297.000
59.00950 325.000
59.21027 341.000
59.41104 290.000
59.61182 293.000
59.81259 294.000
60.01336 282.000
60.21414 306.000
60.41491 311.000
60.61568 314.000
60.81645 262.000
60.99898 292.000