Folder: python_study_group/Task01/nick/files/ESI_material_XRD/kinetics/crystal_size_analysis/50ul IPA

Note: Task01/nick/files/ESI_material_XRD/kinetics/crystal_size_analysis/50ul IPA/output_quant_size_all.txt
file_name	Rwp	chisq	wtpc_Form1	wtpc_Form1_esd	wtpc_Form2	wtpc_Form2_esd	CS_L_Form1	CS_L_Form1_esd	CS_L_Form2	CS_L_Form2_esd	use_(Y_or_N)	comments	
2005_RVR_IPA_1min.xy	      13.17	      4.491	       95.9	        0.6	        4.1	        0.6	71.900104	1.304123	131.645404	52.524943	Y	not_Form2
2004_RVR_IPA_5min.xy	      14.10	      4.344	       17.4	        0.7	       82.6	        0.7	59.488198	4.990240	90.849865	2.227770	Y
2016_RVR_IPA_7.5m.xy	      16.17	      5.806	        6.9	        0.7	       93.1	        0.7	36.822445	5.708761	91.506787	1.588435	Y
2007_RVR_IPA_15m.xy	      14.74	      5.230	        2.2	        1.1	       97.8	        1.1	13.455283	7.043328	86.383969	1.479395	Y	not_FormI
2006_RVR_IPA_30m.xy	      14.90	      5.274	        5.5	        0.9	       94.5	        0.9	17.883492	3.780128	95.848965	1.743263	Y	not_Form1
RVR_IPA_45m.xy	      16.30	      4.497	       13.5	        1.3	       86.5	        1.3	10.185547	1.268119	109.416622	2.800358	Y	not_Form1

Note: README.md
# Python Study Group 15

## Task 01: Recursively remove unwanted files from a directory

File: 2004_RVR_IPA_5min.xy
5.00155 802.000
5.16379 770.000
5.32603 723.000
5.48827 621.000
5.65051 623.000
5.81275 544.000
5.97499 497.000
6.13723 509.000
6.29947 612.000
6.46171 721.000
6.62395 544.000
6.78620 1226.000
6.94844 475.000
7.11068 411.000
7.27292 349.000
7.43516 345.000
7.59740 332.000
7.75964 289.000
7.92188 356.000
8.08412 376.000
8.24636 623.000
8.40860 1716.000
8.57084 2826.000
8.73309 1595.000
8.89533 553.000
9.05757 401.000
9.21981 446.000
9.38205 1159.000
9.54429 1678.000
9.70653 870.000
9.86877 2762.000
10.03101 568.000
10.19325 384.000
10.35549 397.000
10.51773 489.000
10.67998 404.000
10.84222 833.000
11.00446 1133.000
11.16670 362.000
11.32894 303.000
11.49118 322.000
11.65342 328.000
11.81566 316.000
11.97790 279.000
12.14014 281.000
12.30238 348.000
12.46463 331.000
12.62687 304.000
12.78911 350.000
12.95135 447.000
13.11359 458.000
13.27583 746.000
13.43807 569.000
13.60031 1198.000
13.76255 2086.000
13.92479 661.000
14.08703 327.000
14.24927 350.000
14.41152 350.000
14.57376 439.000
14.73600 645.000
14.89824 911.000
15.06048 413.000
15.22272 407.000
15.38496 444.000
15.54720 650.000
15.70944 763.000
15.87168 794.000
16.03392 2953.000
16.19616 1251.000
16.35841 1600.000
16.52065 1496.000
16.68289 3107.000
16.84513 1212.000
17.00737 875.000
17.16961 1507.000
17.33185 3748.000
17.49409 1022.000
17.65633 2241.000
17.81857 3803.000
17.98081 1475.000
18.14305 2022.000
18.30530 4482.000
18.46754 2680.000
18.62978 1192.000
18.79202 1840.000
18.95426 2594.000
19.11650 1177.000
19.27874 1237.000
19.44098 2745.000
19.60322 2196.000
19.76546 2723.000
19.92770 3142.000
20.08995 3673.000
20.25219 1984.000
20.41443 1875.000
20.57667 2926.000
20.73891 1482.000
20.90115 1175.000
21.06339 956.000
21.22563 1473.000
21.38787 3236.000
21.55011 4661.000
21.71235 5343.000
21.87459 1226.000
22.03684 1637.000
22.19908 2531.000
22.36132 950.000
22.52356 1140.000
22.68580 1516.000
22.84804 1234.000
23.01028 1112.000
23.17252 801.000
23.33476 1241.000
23.49700 1796.000
23.65924 1336.000
23.82148 1093.000
23.98373 1314.000
24.14597 1466.000
24.30821 1075.000
24.47045 1330.000
24.63269 1045.000
24.79493 1409.000
24.95717 842.000
25.11941 1094.000
25.28165 2518.000
25.44389 1871.000
25.60613 869.000
25.76837 1379.000
25.93062 1141.000
26.09286 1766.000
26.25510 1321.000
26.41734 1391.000
26.57958 994.000
26.74182 859.000
26.90406 1171.000
27.06630 771.000
27.22854 750.000
27.39078 793.000
27.55302 800.000
27.71526 490.000
27.87751 546.000
28.03975 552.000
28.20199 489.000
28.36423 772.000
28.52647 1475.000
28.68871 1274.000
28.85095 828.000
29.01319 593.000
29.17543 690.000
29.33767 591.000
29.49991 560.000
29.66216 876.000
29.82440 1308.000
29.98664 1170.000
30.14888 1061.000
30.31112 834.000
30.47336 687.000
30.63560 522.000
30.79784 630.000
30.96008 750.000
31.12232 683.000
31.28456 871.000
31.44680 869.000
31.60905 1276.000
31.77129 999.000
31.93353 827.000
32.09577 807.000
32.25801 588.000
32.42025 576.000
32.58249 549.000
32.74473 539.000
32.90697 536.000
33.06921 613.000
33.23145 671.000
33.39369 611.000
33.55594 696.000
33.71818 695.000
33.88042 520.000
34.04266 494.000
34.20490 537.000
34.36714 457.000
34.52938 554.000
34.69162 582.000
34.85386 661.000
35.01610 911.000
35.17834 868.000
35.34058 808.000
35.50283 567.000
35.66507 488.000
35.82731 530.000
35.98955 622.000
36.15179 928.000
36.31403 884.000
36.47627 636.000
36.63851 561.000
36.80075 549.000
36.96299 480.000
37.12523 556.000
37.28748 667.000
37.44972 489.000
37.61196 464.000
37.77420 488.000
37.93644 683.000
38.09868 566.000
38.26092 565.000
38.42316 679.000
38.58540 580.000
38.74764 548.000
38.90988 678.000
39.07212 720.000
39.23437 594.000
39.39661 546.000
39.55885 579.000
39.72109 561.000
39.88333 567.000
40.04557 581.000
40.20781 591.000
40.37005 694.000
40.53229 938.000
40.69453 672.000
40.85677 495.000
41.01901 546.000
41.18126 560.000
41.34350 515.000
41.50574 470.000
41.66798 517.000
41.83022 519.000
41.99246 418.000
42.15470 411.000
42.31694 465.000
42.47918 496.000
42.64142 548.000
42.80366 480.000
42.96590 473.000
43.12815 567.000
43.29039 542.000
43.45263 530.000
43.61487 513.000
43.77711 535.000
43.93935 562.000
44.10159 530.000
44.26383 602.000
44.42607 682.000
44.58831 687.000
44.75055 577.000
44.91280 568.000
45.07504 519.000
45.23728 565.000
45.39952 499.000
45.56176 586.000
45.72400 512.000
45.88624 496.000
46.04848 483.000
46.21072 554.000
46.37296 594.000
46.53520 631.000
46.69744 585.000
46.85969 528.000
47.02193 533.000
47.18417 503.000
47.34641 512.000
47.50865 519.000
47.67089 478.000
47.83313 494.000
47.99537 496.000
48.15761 470.000
48.31985 484.000
48.48209 497.000
48.64433 438.000
48.80658 431.000
48.96882 459.000
49.13106 479.000
49.29330 460.000
49.45554 459.000
49.61778 422.000
49.78002 434.000
49.94226 449.000
50.00310 445.000

File: 2005_RVR_IPA_1min.xy
5.00155 808.000
5.16379 754.000
5.32603 718.000
5.48827 643.000
5.65051 621.000
5.81275 597.000
5.97499 484.000
6.13723 494.000
6.29947 503.000
6.46171 585.000
6.62395 1014.000
6.78620 4086.000
6.94844 3842.000
7.11068 609.000
7.27292 459.000
7.43516 491.000
7.59740 486.000
7.75964 413.000
7.92188 432.000
8.08412 558.000
8.24636 1430.000
8.40860 5775.000
8.57084 1760.000
8.73309 836.000
8.89533 508.000
9.05757 441.000
9.21981 430.000
9.38205 404.000
9.54429 514.000
9.70653 440.000
9.86877 555.000
10.03101 412.000
10.19325 388.000
10.35549 385.000
10.51773 785.000
10.67998 1019.000
10.84222 434.000
11.00446 501.000
11.16670 371.000
11.32894 352.000
11.49118 372.000
11.65342 350.000
11.81566 315.000
11.97790 374.000
12.14014 325.000
12.30238 389.000
12.46463 368.000
12.62687 358.000
12.78911 349.000
12.95135 334.000
13.11359 509.000
13.27583 853.000
13.43807 1161.000
13.60031 1656.000
13.76255 984.000
13.92479 441.000
14.08703 426.000
14.24927 367.000
14.41152 435.000
14.57376 749.000
14.73600 2373.000
14.89824 1191.000
15.06048 1127.000
15.22272 406.000
15.38496 426.000
15.54720 435.000
15.70944 456.000
15.87168 444.000
16.03392 632.000
16.19616 884.000
16.35841 2694.000
16.52065 2766.000
16.68289 2353.000
16.84513 3381.000
17.00737 1958.000
17.16961 5277.000
17.33185 1491.000
17.49409 786.000
17.65633 731.000
17.81857 1220.000
17.98081 2012.000
18.14305 7950.000
18.30530 2452.000
18.46754 1382.000
18.62978 2154.000
18.79202 3635.000
18.95426 1546.000
19.11650 1846.000
19.27874 1071.000
19.44098 2063.000
19.60322 4758.000
19.76546 1953.000
19.92770 3960.000
20.08995 3314.000
20.25219 3476.000
20.41443 4646.000
20.57667 1532.000
20.73891 1151.000
20.90115 1007.000
21.06339 1070.000
21.22563 1923.000
21.38787 5436.000
21.55011 11647.000
21.71235 9912.000
21.87459 2505.000
22.03684 1030.000
22.19908 987.000
22.36132 1064.000
22.52356 1598.000
22.68580 1293.000
22.84804 1300.000
23.01028 1640.000
23.17252 1213.000
23.33476 1164.000
23.49700 3145.000
23.65924 3340.000
23.82148 1744.000
23.98373 1260.000
24.14597 951.000
24.30821 1322.000
24.47045 2938.000
24.63269 1345.000
24.79493 1512.000
24.95717 916.000
25.11941 1316.000
25.28165 2097.000
25.44389 1734.000
25.60613 1358.000
25.76837 857.000
25.93062 1122.000
26.09286 2184.000
26.25510 1571.000
26.41734 1276.000
26.57958 1741.000
26.74182 1590.000
26.90406 1550.000
27.06630 2036.000
27.22854 1521.000
27.39078 1266.000
27.55302 1638.000
27.71526 833.000
27.87751 610.000
28.03975 629.000
28.20199 648.000
28.36423 938.000
28.52647 1384.000
28.68871 1384.000
28.85095 878.000
29.01319 1079.000
29.17543 1296.000
29.33767 1070.000
29.49991 1041.000
29.66216 955.000
29.82440 1289.000
29.98664 1297.000
30.14888 1119.000
30.31112 844.000
30.47336 1131.000
30.63560 746.000
30.79784 583.000
30.96008 599.000
31.12232 841.000
31.28456 843.000
31.44680 618.000
31.60905 659.000
31.77129 791.000
31.93353 821.000
32.09577 866.000
32.25801 710.000
32.42025 701.000
32.58249 541.000
32.74473 638.000
32.90697 713.000
33.06921 786.000
33.23145 730.000
33.39369 918.000
33.55594 740.000
33.71818 647.000
33.88042 583.000
34.04266 732.000
34.20490 782.000
34.36714 702.000
34.52938 1106.000
34.69162 1432.000
34.85386 980.000
35.01610 1186.000
35.17834 860.000
35.34058 731.000
35.50283 701.000
35.66507 722.000
35.82731 578.000
35.98955 484.000
36.15179 631.000
36.31403 798.000
36.47627 759.000
36.63851 886.000
36.80075 962.000
36.96299 956.000
37.12523 831.000
37.28748 741.000
37.44972 659.000
37.61196 634.000
37.77420 678.000
37.93644 785.000
38.09868 875.000
38.26092 600.000
38.42316 681.000
38.58540 694.000
38.74764 639.000
38.90988 615.000
39.07212 603.000
39.23437 588.000
39.39661 645.000
39.55885 758.000
39.72109 742.000
39.88333 690.000
40.04557 699.000
40.20781 959.000
40.37005 973.000
40.53229 844.000
40.69453 631.000
40.85677 618.000
41.01901 624.000
41.18126 630.000
41.34350 694.000
41.50574 763.000
41.66798 795.000
41.83022 927.000
41.99246 679.000
42.15470 553.000
42.31694 560.000
42.47918 572.000
42.64142 546.000
42.80366 567.000
42.96590 509.000
43.12815 584.000
43.29039 721.000
43.45263 738.000
43.61487 813.000
43.77711 758.000
43.93935 768.000
44.10159 749.000
44.26383 715.000
44.42607 619.000
44.58831 595.000
44.75055 612.000
44.91280 655.000
45.07504 623.000
45.23728 615.000
45.39952 536.000
45.56176 591.000
45.72400 657.000
45.88624 629.000
46.04848 547.000
46.21072 560.000
46.37296 624.000
46.53520 693.000
46.69744 641.000
46.85969 628.000
47.02193 565.000
47.18417 573.000
47.34641 645.000
47.50865 678.000
47.67089 663.000
47.83313 564.000
47.99537 623.000
48.15761 564.000
48.31985 508.000
48.48209 480.000
48.64433 524.000
48.80658 511.000
48.96882 488.000
49.13106 481.000
49.29330 496.000
49.45554 547.000
49.61778 541.000
49.78002 561.000
49.94226 512.000
50.00310 508.000

File: 2006_RVR_IPA_30m.xy
5.00155 874.000
5.16379 747.000
5.32603 772.000
5.48827 642.000
5.65051 676.000
5.81275 598.000
5.97499 542.000
6.13723 557.000
6.29947 677.000
6.46171 1100.000
6.62395 498.000
6.78620 610.000
6.94844 453.000
7.11068 459.000
7.27292 414.000
7.43516 395.000
7.59740 379.000
7.75964 430.000
7.92188 440.000
8.08412 471.000
8.24636 502.000
8.40860 920.000
8.57084 3785.000
8.73309 3989.000
8.89533 762.000
9.05757 558.000
9.21981 571.000
9.38205 1550.000
9.54429 3892.000
9.70653 1234.000
9.86877 5228.000
10.03101 955.000
10.19325 526.000
10.35549 637.000
10.51773 573.000
10.67998 519.000
10.84222 1146.000
11.00446 2812.000
11.16670 534.000
11.32894 446.000
11.49118 440.000
11.65342 421.000
11.81566 439.000
11.97790 358.000
12.14014 436.000
12.30238 438.000
12.46463 443.000
12.62687 361.000
12.78911 467.000
12.95135 590.000
13.11359 583.000
13.27583 1183.000
13.43807 572.000
13.60031 1283.000
13.76255 3561.000
13.92479 1227.000
14.08703 572.000
14.24927 460.000
14.41152 499.000
14.57376 506.000
14.73600 561.000
14.89824 1177.000
15.06048 579.000
15.22272 433.000
15.38496 558.000
15.54720 850.000
15.70944 1155.000
15.87168 938.000
16.03392 3858.000
16.19616 2140.000
16.35841 1368.000
16.52065 1706.000
16.68289 4734.000
16.84513 1187.000
17.00737 903.000
17.16961 1554.000
17.33185 6127.000
17.49409 1780.000
17.65633 3120.000
17.81857 8837.000
17.98081 1928.000
18.14305 1833.000
18.30530 6496.000
18.46754 6358.000
18.62978 1339.000
18.79202 1990.000
18.95426 4717.000
19.11650 1733.000
19.27874 1516.000
19.44098 2941.000
19.60322 2928.000
19.76546 4200.000
19.92770 3222.000
20.08995 6859.000
20.25219 2144.000
20.41443 2595.000
20.57667 4156.000
20.73891 2881.000
20.90115 1657.000
21.06339 1343.000
21.22563 1610.000
21.38787 2898.000
21.55011 4408.000
21.71235 8661.000
21.87459 1757.000
22.03684 1850.000
22.19908 3687.000
22.36132 1337.000
22.52356 1377.000
22.68580 1937.000
22.84804 1686.000
23.01028 1135.000
23.17252 1136.000
23.33476 1347.000
23.49700 2203.000
23.65924 1372.000
23.82148 1267.000
23.98373 1914.000
24.14597 1969.000
24.30821 1375.000
24.47045 1484.000
24.63269 1192.000
24.79493 2097.000
24.95717 1232.000
25.11941 1084.000
25.28165 2698.000
25.44389 2934.000
25.60613 1115.000
25.76837 1699.000
25.93062 1435.000
26.09286 2308.000
26.25510 1718.000
26.41734 1739.000
26.57958 1539.000
26.74182 859.000
26.90406 1332.000
27.06630 835.000
27.22854 691.000
27.39078 840.000
27.55302 1014.000
27.71526 660.000
27.87751 622.000
28.03975 740.000
28.20199 644.000
28.36423 825.000
28.52647 1832.000
28.68871 1984.000
28.85095 1267.000
29.01319 646.000
29.17543 717.000
29.33767 694.000
29.49991 628.000
29.66216 932.000
29.82440 1785.000
29.98664 1442.000
30.14888 1475.000
30.31112 1146.000
30.47336 801.000
30.63560 579.000
30.79784 783.000
30.96008 1021.000
31.12232 780.000
31.28456 990.000
31.44680 1156.000
31.60905 1613.000
31.77129 1441.000
31.93353 1015.000
32.09577 1174.000
32.25801 686.000
32.42025 843.000
32.58249 654.000
32.74473 688.000
32.90697 600.000
33.06921 739.000
33.23145 847.000
33.39369 654.000
33.55594 782.000
33.71818 963.000
33.88042 629.000
34.04266 584.000
34.20490 654.000
34.36714 535.000
34.52938 567.000
34.69162 677.000
34.85386 751.000
35.01610 1090.000
35.17834 1017.000
35.34058 1034.000
35.50283 594.000
35.66507 604.000
35.82731 543.000
35.98955 784.000
36.15179 1044.000
36.31403 1227.000
36.47627 842.000
36.63851 655.000
36.80075 625.000
36.96299 581.000
37.12523 629.000
37.28748 784.000
37.44972 701.000
37.61196 542.000
37.77420 531.000
37.93644 711.000
38.09868 691.000
38.26092 740.000
38.42316 813.000
38.58540 710.000
38.74764 614.000
38.90988 786.000
39.07212 971.000
39.23437 666.000
39.39661 641.000
39.55885 743.000
39.72109 663.000
39.88333 671.000
40.04557 667.000
40.20781 719.000
40.37005 796.000
40.53229 1101.000
40.69453 939.000
40.85677 641.000
41.01901 643.000
41.18126 601.000
41.34350 628.000
41.50574 505.000
41.66798 530.000
41.83022 604.000
41.99246 537.000
42.15470 502.000
42.31694 535.000
42.47918 553.000
42.64142 692.000
42.80366 579.000
42.96590 563.000
43.12815 619.000
43.29039 739.000
43.45263 626.000
43.61487 676.000
43.77711 706.000
43.93935 613.000
44.10159 596.000
44.26383 680.000
44.42607 812.000
44.58831 894.000
44.75055 772.000
44.91280 702.000
45.07504 643.000
45.23728 624.000
45.39952 666.000
45.56176 612.000
45.72400 613.000
45.88624 568.000
46.04848 584.000
46.21072 663.000
46.37296 668.000
46.53520 730.000
46.69744 664.000
46.85969 597.000
47.02193 546.000
47.18417 557.000
47.34641 604.000
47.50865 643.000
47.67089 585.000
47.83313 597.000
47.99537 582.000
48.15761 582.000
48.31985 586.000
48.48209 524.000
48.64433 534.000
48.80658 581.000
48.96882 533.000
49.13106 594.000
49.29330 553.000
49.45554 500.000
49.61778 460.000
49.78002 495.000
49.94226 488.000
50.00310 489.000

File: 2007_RVR_IPA_15m.xy
5.00155 830.000
5.16379 718.000
5.32603 677.000
5.48827 571.000
5.65051 557.000
5.81275 514.000
5.97499 504.000
6.13723 481.000
6.29947 556.000
6.46171 942.000
6.62395 483.000
6.78620 454.000
6.94844 416.000
7.11068 350.000
7.27292 355.000
7.43516 358.000
7.59740 384.000
7.75964 411.000
7.92188 373.000
8.08412 400.000
8.24636 448.000
8.40860 672.000
8.57084 2468.000
8.73309 5772.000
8.89533 722.000
9.05757 518.000
9.21981 542.000
9.38205 1164.000
9.54429 3736.000
9.70653 1081.000
9.86877 3896.000
10.03101 1541.000
10.19325 642.000
10.35549 532.000
10.51773 569.000
10.67998 433.000
10.84222 811.000
11.00446 2902.000
11.16670 559.000
11.32894 425.000
11.49118 429.000
11.65342 374.000
11.81566 371.000
11.97790 392.000
12.14014 410.000
12.30238 404.000
12.46463 487.000
12.62687 352.000
12.78911 405.000
12.95135 465.000
13.11359 607.000
13.27583 1002.000
13.43807 642.000
13.60031 958.000
13.76255 3460.000
13.92479 1995.000
14.08703 584.000
14.24927 407.000
14.41152 461.000
14.57376 449.000
14.73600 517.000
14.89824 961.000
15.06048 546.000
15.22272 483.000
15.38496 461.000
15.54720 721.000
15.70944 1324.000
15.87168 911.000
16.03392 2829.000
16.19616 3961.000
16.35841 1160.000
16.52065 1813.000
16.68289 3754.000
16.84513 1628.000
17.00737 812.000
17.16961 1191.000
17.33185 4633.000
17.49409 3128.000
17.65633 2128.000
17.81857 9105.000
17.98081 2094.000
18.14305 1519.000
18.30530 4848.000
18.46754 9040.000
18.62978 1391.000
18.79202 1615.000
18.95426 4653.000
19.11650 2161.000
19.27874 1376.000
19.44098 2493.000
19.60322 3715.000
19.76546 3381.000
19.92770 3302.000
20.08995 7069.000
20.25219 2471.000
20.41443 2652.000
20.57667 3156.000
20.73891 4714.000
20.90115 1567.000
21.06339 1347.000
21.22563 1364.000
21.38787 2443.000
21.55011 4444.000
21.71235 7887.000
21.87459 2702.000
22.03684 1689.000
22.19908 3529.000
22.36132 1745.000
22.52356 1218.000
22.68580 1662.000
22.84804 2144.000
23.01028 1068.000
23.17252 1244.000
23.33476 1167.000
23.49700 2229.000
23.65924 1378.000
23.82148 1327.000
23.98373 1792.000
24.14597 2132.000
24.30821 1783.000
24.47045 1397.000
24.63269 1112.000
24.79493 2073.000
24.95717 1455.000
25.11941 991.000
25.28165 2320.000
25.44389 3651.000
25.60613 1528.000
25.76837 1489.000
25.93062 1627.000
26.09286 1925.000
26.25510 2143.000
26.41734 1839.000
26.57958 1701.000
26.74182 855.000
26.90406 1124.000
27.06630 1118.000
27.22854 786.000
27.39078 926.000
27.55302 1019.000
27.71526 740.000
27.87751 667.000
28.03975 751.000
28.20199 651.000
28.36423 735.000
28.52647 1542.000
28.68871 2429.000
28.85095 1586.000
29.01319 798.000
29.17543 709.000
29.33767 738.000
29.49991 600.000
29.66216 795.000
29.82440 1801.000
29.98664 1600.000
30.14888 1648.000
30.31112 1227.000
30.47336 874.000
30.63560 599.000
30.79784 763.000
30.96008 925.000
31.12232 741.000
31.28456 922.000
31.44680 1319.000
31.60905 1524.000
31.77129 1889.000
31.93353 1131.000
32.09577 1318.000
32.25801 832.000
32.42025 825.000
32.58249 720.000
32.74473 675.000
32.90697 546.000
33.06921 739.000
33.23145 1030.000
33.39369 673.000
33.55594 794.000
33.71818 1011.000
33.88042 705.000
34.04266 624.000
34.20490 607.000
34.36714 619.000
34.52938 509.000
34.69162 616.000
34.85386 696.000
35.01610 1013.000
35.17834 1137.000
35.34058 1130.000
35.50283 755.000
35.66507 639.000
35.82731 554.000
35.98955 741.000
36.15179 991.000
36.31403 1225.000
36.47627 997.000
36.63851 666.000
36.80075 657.000
36.96299 563.000
37.12523 634.000
37.28748 860.000
37.44972 776.000
37.61196 587.000
37.77420 520.000
37.93644 667.000
38.09868 778.000
38.26092 693.000
38.42316 839.000
38.58540 850.000
38.74764 673.000
38.90988 752.000
39.07212 1055.000
39.23437 837.000
39.39661 617.000
39.55885 716.000
39.72109 721.000
39.88333 679.000
40.04557 712.000
40.20781 696.000
40.37005 771.000
40.53229 1118.000
40.69453 1143.000
40.85677 685.000
41.01901 652.000
41.18126 674.000
41.34350 682.000
41.50574 593.000
41.66798 529.000
41.83022 609.000
41.99246 547.000
42.15470 525.000
42.31694 526.000
42.47918 553.000
42.64142 707.000
42.80366 663.000
42.96590 610.000
43.12815 608.000
43.29039 711.000
43.45263 686.000
43.61487 638.000
43.77711 746.000
43.93935 644.000
44.10159 603.000
44.26383 675.000
44.42607 797.000
44.58831 915.000
44.75055 813.000
44.91280 766.000
45.07504 663.000
45.23728 709.000
45.39952 679.000
45.56176 703.000
45.72400 663.000
45.88624 621.000
46.04848 608.000
46.21072 676.000
46.37296 714.000
46.53520 732.000
46.69744 747.000
46.85969 629.000
47.02193 632.000
47.18417 603.000
47.34641 596.000
47.50865 662.000
47.67089 607.000
47.83313 559.000
47.99537 653.000
48.15761 621.000
48.31985 592.000
48.48209 634.000
48.64433 564.000
48.80658 529.000
48.96882 613.000
49.13106 578.000
49.29330 599.000
49.45554 575.000
49.61778 504.000
49.78002 528.000
49.94226 533.000
50.00310 515.000

File: 2016_RVR_IPA_7.5m.xy
5.00155 880.000
5.16379 824.000
5.32603 730.000
5.48827 652.000
5.65051 627.000
5.81275 629.000
5.97499 644.000
6.13723 566.000
6.29947 714.000
6.46171 1133.000
6.62395 583.000
6.78620 799.000
6.94844 651.000
7.11068 426.000
7.27292 456.000
7.43516 454.000
7.59740 406.000
7.75964 411.000
7.92188 438.000
8.08412 428.000
8.24636 581.000
8.40860 1365.000
8.57084 4176.000
8.73309 4876.000
8.89533 842.000
9.05757 626.000
9.21981 628.000
9.38205 1556.000
9.54429 4020.000
9.70653 1314.000
9.86877 4947.000
10.03101 1249.000
10.19325 601.000
10.35549 539.000
10.51773 634.000
10.67998 510.000
10.84222 1061.000
11.00446 2727.000
11.16670 552.000
11.32894 409.000
11.49118 395.000
11.65342 393.000
11.81566 387.000
11.97790 382.000
12.14014 408.000
12.30238 426.000
12.46463 473.000
12.62687 370.000
12.78911 400.000
12.95135 549.000
13.11359 606.000
13.27583 1128.000
13.43807 641.000
13.60031 1338.000
13.76255 3595.000
13.92479 1420.000
14.08703 470.000
14.24927 436.000
14.41152 434.000
14.57376 478.000
14.73600 688.000
14.89824 1077.000
15.06048 564.000
15.22272 496.000
15.38496 461.000
15.54720 827.000
15.70944 1226.000
15.87168 924.000
16.03392 3944.000
16.19616 2661.000
16.35841 1566.000
16.52065 1819.000
16.68289 4583.000
16.84513 1524.000
17.00737 900.000
17.16961 1543.000
17.33185 5578.000
17.49409 2115.000
17.65633 2467.000
17.81857 8504.000
17.98081 2016.000
18.14305 2021.000
18.30530 6038.000
18.46754 6663.000
18.62978 1396.000
18.79202 1916.000
18.95426 4551.000
19.11650 1942.000
19.27874 1570.000
19.44098 3120.000
19.60322 3192.000
19.76546 3944.000
19.92770 3284.000
20.08995 6727.000
20.25219 2413.000
20.41443 2683.000
20.57667 3926.000
20.73891 3240.000
20.90115 1639.000
21.06339 1312.000
21.22563 1572.000
21.38787 2978.000
21.55011 4990.000
21.71235 9068.000
21.87459 2072.000
22.03684 1877.000
22.19908 3919.000
22.36132 1484.000
22.52356 1401.000
22.68580 1825.000
22.84804 1955.000
23.01028 1179.000
23.17252 1124.000
23.33476 1347.000
23.49700 2468.000
23.65924 1535.000
23.82148 1338.000
23.98373 1814.000
24.14597 2004.000
24.30821 1501.000
24.47045 1601.000
24.63269 1185.000
24.79493 2159.000
24.95717 1271.000
25.11941 1090.000
25.28165 2879.000
25.44389 3165.000
25.60613 1297.000
25.76837 1666.000
25.93062 1553.000
26.09286 2149.000
26.25510 1938.000
26.41734 1793.000
26.57958 1520.000
26.74182 865.000
26.90406 1324.000
27.06630 942.000
27.22854 773.000
27.39078 841.000
27.55302 1088.000
27.71526 724.000
27.87751 602.000
28.03975 682.000
28.20199 632.000
28.36423 826.000
28.52647 1829.000
28.68871 2074.000
28.85095 1388.000
29.01319 704.000
29.17543 791.000
29.33767 742.000
29.49991 648.000
29.66216 911.000
29.82440 1852.000
29.98664 1493.000
30.14888 1546.000
30.31112 1094.000
30.47336 870.000
30.63560 597.000
30.79784 741.000
30.96008 864.000
31.12232 816.000
31.28456 1027.000
31.44680 1202.000
31.60905 1611.000
31.77129 1597.000
31.93353 1057.000
32.09577 1337.000
32.25801 814.000
32.42025 821.000
32.58249 670.000
32.74473 656.000
32.90697 606.000
33.06921 761.000
33.23145 889.000
33.39369 681.000
33.55594 748.000
33.71818 1000.000
33.88042 725.000
34.04266 543.000
34.20490 617.000
34.36714 533.000
34.52938 584.000
34.69162 660.000
34.85386 764.000
35.01610 1111.000
35.17834 1122.000
35.34058 1127.000
35.50283 671.000
35.66507 636.000
35.82731 555.000
35.98955 743.000
36.15179 1001.000
36.31403 1221.000
36.47627 889.000
36.63851 764.000
36.80075 736.000
36.96299 589.000
37.12523 588.000
37.28748 833.000
37.44972 687.000
37.61196 567.000
37.77420 564.000
37.93644 702.000
38.09868 729.000
38.26092 732.000
38.42316 831.000
38.58540 686.000
38.74764 662.000
38.90988 691.000
39.07212 1068.000
39.23437 761.000
39.39661 637.000
39.55885 680.000
39.72109 727.000
39.88333 657.000
40.04557 694.000
40.20781 680.000
40.37005 825.000
40.53229 1110.000
40.69453 1040.000
40.85677 686.000
41.01901 648.000
41.18126 658.000
41.34350 676.000
41.50574 582.000
41.66798 548.000
41.83022 600.000
41.99246 523.000
42.15470 490.000
42.31694 535.000
42.47918 615.000
42.64142 692.000
42.80366 610.000
42.96590 577.000
43.12815 652.000
43.29039 707.000
43.45263 612.000
43.61487 643.000
43.77711 679.000
43.93935 686.000
44.10159 610.000
44.26383 619.000
44.42607 836.000
44.58831 871.000
44.75055 795.000
44.91280 681.000
45.07504 652.000
45.23728 617.000
45.39952 629.000
45.56176 713.000
45.72400 618.000
45.88624 606.000
46.04848 555.000
46.21072 662.000
46.37296 682.000
46.53520 736.000
46.69744 739.000
46.85969 572.000
47.02193 607.000
47.18417 603.000
47.34641 628.000
47.50865 658.000
47.67089 625.000
47.83313 586.000
47.99537 656.000
48.15761 634.000
48.31985 588.000
48.48209 627.000
48.64433 535.000
48.80658 608.000
48.96882 613.000
49.13106 612.000
49.29330 547.000
49.45554 548.000
49.61778 481.000
49.78002 471.000
49.94226 583.000
50.00310 565.000