Folder: python_study_group/Task01/nick/files/ESI_material_XRD/steady_state/crystal_size_analysis/Volumes_Ace

Note: Task01/nick/files/ESI_material_XRD/steady_state/crystal_size_analysis/Volumes_Ace/output_quant_size_all.txt
file_name	Rwp	chisq	wtpc_Form1	wtpc_Form1_esd	wtpc_Form2	wtpc_Form2_esd	CS_L_Form1	CS_L_Form1_esd	CS_L_Form2	CS_L_Form2_esd	use_(Y_or_N)	comments	
1912_RVR_10ul_mill_Ace.xy	       7.92	      2.405	       61.2	        2.2	       38.8	        2.2	10.000023	0.411563	10.000023	1.098079	N	amorphous
1911_RVR_20ul_mill_Ace.xy	      12.31	      3.569	       92.2	        1.3	        7.8	        1.3	71.922595	1.124843	10.000023	3.243212	Y not_Form2
1909_RVR_30ul_mill_Ace.xy	      11.28	      3.661	       62.2	        0.4	       37.8	        0.4	69.769744	1.227505	75.203404	2.213376	Y
1908_RVR_40ul_mill_Ace.xy	       9.27	      2.564	       25.6	        0.6	       74.4	        0.6	52.328662	2.466862	65.499929	1.294669	Y
1964_RVR_50ul_mill_Ace_051120.xy	      12.31	      3.494	        2.4	        1.0	       97.6	        1.0	13.995711	6.365845	85.375802	1.284677	_not_Form1

Note: README.md
# Python Study Group 15

## Task 01: Recursively remove unwanted files from a directory

File: 1908_RVR_40ul_mill_Ace.xy
5.00155 830.000
5.16379 816.000
5.32603 710.000
5.48827 680.000
5.65051 575.000
5.81275 502.000
5.97499 523.000
6.13723 515.000
6.29947 500.000
6.46171 554.000
6.62395 554.000
6.78620 1138.000
6.94844 472.000
7.11068 356.000
7.27292 346.000
7.43516 329.000
7.59740 355.000
7.75964 313.000
7.92188 340.000
8.08412 366.000
8.24636 634.000
8.40860 1097.000
8.57084 1647.000
8.73309 774.000
8.89533 427.000
9.05757 341.000
9.21981 375.000
9.38205 837.000
9.54429 717.000
9.70653 687.000
9.86877 1416.000
10.03101 410.000
10.19325 328.000
10.35549 322.000
10.51773 429.000
10.67998 324.000
10.84222 712.000
11.00446 643.000
11.16670 324.000
11.32894 295.000
11.49118 293.000
11.65342 303.000
11.81566 263.000
11.97790 277.000
12.14014 274.000
12.30238 278.000
12.46463 319.000
12.62687 284.000
12.78911 278.000
12.95135 358.000
13.11359 453.000
13.27583 610.000
13.43807 489.000
13.60031 980.000
13.76255 1062.000
13.92479 414.000
14.08703 344.000
14.24927 281.000
14.41152 369.000
14.57376 429.000
14.73600 571.000
14.89824 610.000
15.06048 368.000
15.22272 333.000
15.38496 421.000
15.54720 586.000
15.70944 530.000
15.87168 726.000
16.03392 1624.000
16.19616 873.000
16.35841 1331.000
16.52065 1204.000
16.68289 1620.000
16.84513 858.000
17.00737 1094.000
17.16961 1506.000
17.33185 2163.000
17.49409 926.000
17.65633 2336.000
17.81857 2406.000
17.98081 1574.000
18.14305 2091.000
18.30530 3518.000
18.46754 1683.000
18.62978 1304.000
18.79202 1716.000
18.95426 1601.000
19.11650 889.000
19.27874 1097.000
19.44098 2072.000
19.60322 1603.000
19.76546 2154.000
19.92770 2693.000
20.08995 2229.000
20.25219 1924.000
20.41443 1711.000
20.57667 2349.000
20.73891 1152.000
20.90115 993.000
21.06339 920.000
21.22563 1531.000
21.38787 3104.000
21.55011 4187.000
21.71235 3042.000
21.87459 1134.000
22.03684 1191.000
22.19908 1395.000
22.36132 846.000
22.52356 1049.000
22.68580 1132.000
22.84804 953.000
23.01028 841.000
23.17252 718.000
23.33476 1128.000
23.49700 1409.000
23.65924 1066.000
23.82148 931.000
23.98373 1038.000
24.14597 1043.000
24.30821 1044.000
24.47045 962.000
24.63269 921.000
24.79493 977.000
24.95717 726.000
25.11941 1128.000
25.28165 1758.000
25.44389 1245.000
25.60613 775.000
25.76837 1006.000
25.93062 1029.000
26.09286 1289.000
26.25510 1095.000
26.41734 1134.000
26.57958 897.000
26.74182 763.000
26.90406 897.000
27.06630 781.000
27.22854 674.000
27.39078 745.000
27.55302 629.000
27.71526 473.000
27.87751 468.000
28.03975 505.000
28.20199 483.000
28.36423 743.000
28.52647 1214.000
28.68871 925.000
28.85095 760.000
29.01319 600.000
29.17543 601.000
29.33767 586.000
29.49991 583.000
29.66216 790.000
29.82440 1099.000
29.98664 876.000
30.14888 774.000
30.31112 690.000
30.47336 515.000
30.63560 478.000
30.79784 511.000
30.96008 550.000
31.12232 574.000
31.28456 688.000
31.44680 716.000
31.60905 921.000
31.77129 763.000
31.93353 682.000
32.09577 613.000
32.25801 497.000
32.42025 472.000
32.58249 425.000
32.74473 457.000
32.90697 515.000
33.06921 588.000
33.23145 536.000
33.39369 519.000
33.55594 508.000
33.71818 528.000
33.88042 476.000
34.04266 452.000
34.20490 509.000
34.36714 483.000
34.52938 571.000
34.69162 598.000
34.85386 611.000
35.01610 699.000
35.17834 658.000
35.34058 572.000
35.50283 462.000
35.66507 444.000
35.82731 428.000
35.98955 566.000
36.15179 650.000
36.31403 657.000
36.47627 527.000
36.63851 552.000
36.80075 514.000
36.96299 467.000
37.12523 502.000
37.28748 527.000
37.44972 462.000
37.61196 449.000
37.77420 468.000
37.93644 529.000
38.09868 487.000
38.26092 524.000
38.42316 569.000
38.58540 509.000
38.74764 478.000
38.90988 547.000
39.07212 548.000
39.23437 484.000
39.39661 494.000
39.55885 568.000
39.72109 506.000
39.88333 506.000
40.04557 534.000
40.20781 543.000
40.37005 606.000
40.53229 687.000
40.69453 571.000
40.85677 433.000
41.01901 464.000
41.18126 455.000
41.34350 430.000
41.50574 435.000
41.66798 448.000
41.83022 452.000
41.99246 378.000
42.15470 391.000
42.31694 453.000
42.47918 424.000
42.64142 411.000
42.80366 402.000
42.96590 433.000
43.12815 506.000
43.29039 451.000
43.45263 460.000
43.61487 503.000
43.77711 501.000
43.93935 477.000
44.10159 462.000
44.26383 505.000
44.42607 575.000
44.58831 514.000
44.75055 510.000
44.91280 454.000
45.07504 437.000
45.23728 454.000
45.39952 450.000
45.56176 481.000
45.72400 463.000
45.88624 433.000
46.04848 444.000
46.21072 468.000
46.37296 473.000
46.53520 539.000
46.69744 455.000
46.85969 433.000
47.02193 435.000
47.18417 471.000
47.34641 477.000
47.50865 450.000
47.67089 449.000
47.83313 461.000
47.99537 415.000
48.15761 454.000
48.31985 439.000
48.48209 413.000
48.64433 376.000
48.80658 381.000
48.96882 410.000
49.13106 416.000
49.29330 404.000
49.45554 400.000
49.61778 377.000
49.78002 400.000
49.94226 405.000
50.00310 375.000

File: 1909_RVR_30ul_mill_Ace.xy
5.00155 726.000
5.16379 670.000
5.32603 584.000
5.48827 597.000
5.65051 588.000
5.81275 521.000
5.97499 481.000
6.13723 472.000
6.29947 571.000
6.46171 689.000
6.62395 1006.000
6.78620 3556.000
6.94844 1208.000
7.11068 499.000
7.27292 460.000
7.43516 413.000
7.59740 431.000
7.75964 431.000
7.92188 455.000
8.08412 566.000
8.24636 1344.000
8.40860 4540.000
8.57084 1529.000
8.73309 1117.000
8.89533 484.000
9.05757 487.000
9.21981 466.000
9.38205 677.000
9.54429 1057.000
9.70653 622.000
9.86877 1651.000
10.03101 567.000
10.19325 483.000
10.35549 429.000
10.51773 764.000
10.67998 538.000
10.84222 684.000
11.00446 949.000
11.16670 407.000
11.32894 360.000
11.49118 380.000
11.65342 375.000
11.81566 394.000
11.97790 385.000
12.14014 341.000
12.30238 429.000
12.46463 413.000
12.62687 385.000
12.78911 378.000
12.95135 453.000
13.11359 618.000
13.27583 963.000
13.43807 950.000
13.60031 1536.000
13.76255 1331.000
13.92479 552.000
14.08703 441.000
14.24927 450.000
14.41152 508.000
14.57376 807.000
14.73600 1635.000
14.89824 1278.000
15.06048 619.000
15.22272 502.000
15.38496 489.000
15.54720 548.000
15.70944 643.000
15.87168 654.000
16.03392 1450.000
16.19616 1103.000
16.35841 2659.000
16.52065 1798.000
16.68289 2596.000
16.84513 2446.000
17.00737 1930.000
17.16961 3586.000
17.33185 2346.000
17.49409 1049.000
17.65633 1511.000
17.81857 3247.000
17.98081 2629.000
18.14305 5560.000
18.30530 2994.000
18.46754 2450.000
18.62978 2280.000
18.79202 2545.000
18.95426 2124.000
19.11650 1525.000
19.27874 1226.000
19.44098 2734.000
19.60322 3059.000
19.76546 2530.000
19.92770 4016.000
20.08995 3032.000
20.25219 2940.000
20.41443 3341.000
20.57667 2050.000
20.73891 1532.000
20.90115 1159.000
21.06339 1231.000
21.22563 2137.000
21.38787 5612.000
21.55011 8538.000
21.71235 6373.000
21.87459 1619.000
22.03684 1235.000
22.19908 1479.000
22.36132 1093.000
22.52356 1513.000
22.68580 1306.000
22.84804 1402.000
23.01028 1327.000
23.17252 997.000
23.33476 1405.000
23.49700 2728.000
23.65924 2089.000
23.82148 1413.000
23.98373 1179.000
24.14597 1227.000
24.30821 1456.000
24.47045 1941.000
24.63269 1023.000
24.79493 1377.000
24.95717 920.000
25.11941 1360.000
25.28165 2008.000
25.44389 1655.000
25.60613 1042.000
25.76837 955.000
25.93062 1196.000
26.09286 1818.000
26.25510 1311.000
26.41734 1351.000
26.57958 1465.000
26.74182 1163.000
26.90406 1355.000
27.06630 1312.000
27.22854 1087.000
27.39078 1117.000
27.55302 1121.000
27.71526 622.000
27.87751 587.000
28.03975 566.000
28.20199 638.000
28.36423 846.000
28.52647 1310.000
28.68871 1202.000
28.85095 900.000
29.01319 896.000
29.17543 954.000
29.33767 827.000
29.49991 760.000
29.66216 841.000
29.82440 1238.000
29.98664 1118.000
30.14888 983.000
30.31112 828.000
30.47336 888.000
30.63560 555.000
30.79784 576.000
30.96008 653.000
31.12232 792.000
31.28456 787.000
31.44680 717.000
31.60905 803.000
31.77129 880.000
31.93353 786.000
32.09577 801.000
32.25801 616.000
32.42025 594.000
32.58249 542.000
32.74473 557.000
32.90697 585.000
33.06921 690.000
33.23145 678.000
33.39369 778.000
33.55594 649.000
33.71818 560.000
33.88042 556.000
34.04266 592.000
34.20490 621.000
34.36714 629.000
34.52938 892.000
34.69162 848.000
34.85386 799.000
35.01610 930.000
35.17834 770.000
35.34058 666.000
35.50283 550.000
35.66507 569.000
35.82731 494.000
35.98955 514.000
36.15179 661.000
36.31403 723.000
36.47627 688.000
36.63851 704.000
36.80075 748.000
36.96299 623.000
37.12523 645.000
37.28748 661.000
37.44972 575.000
37.61196 545.000
37.77420 612.000
37.93644 665.000
38.09868 698.000
38.26092 568.000
38.42316 603.000
38.58540 536.000
38.74764 541.000
38.90988 542.000
39.07212 588.000
39.23437 594.000
39.39661 548.000
39.55885 667.000
39.72109 618.000
39.88333 598.000
40.04557 610.000
40.20781 750.000
40.37005 740.000
40.53229 764.000
40.69453 599.000
40.85677 510.000
41.01901 555.000
41.18126 567.000
41.34350 610.000
41.50574 615.000
41.66798 637.000
41.83022 646.000
41.99246 503.000
42.15470 430.000
42.31694 490.000
42.47918 457.000
42.64142 488.000
42.80366 499.000
42.96590 516.000
43.12815 527.000
43.29039 629.000
43.45263 620.000
43.61487 647.000
43.77711 640.000
43.93935 662.000
44.10159 590.000
44.26383 591.000
44.42607 564.000
44.58831 526.000
44.75055 558.000
44.91280 516.000
45.07504 540.000
45.23728 547.000
45.39952 499.000
45.56176 553.000
45.72400 501.000
45.88624 511.000
46.04848 503.000
46.21072 515.000
46.37296 555.000
46.53520 581.000
46.69744 563.000
46.85969 508.000
47.02193 502.000
47.18417 536.000
47.34641 565.000
47.50865 548.000
47.67089 481.000
47.83313 492.000
47.99537 486.000
48.15761 447.000
48.31985 422.000
48.48209 457.000
48.64433 416.000
48.80658 454.000
48.96882 437.000
49.13106 447.000
49.29330 443.000
49.45554 415.000
49.61778 434.000
49.78002 441.000
49.94226 440.000
50.00310 439.000

File: 1911_RVR_20ul_mill_Ace.xy
5.00155 908.000
5.16379 790.000
5.32603 656.000
5.48827 658.000
5.65051 638.000
5.81275 548.000
5.97499 518.000
6.13723 497.000
6.29947 514.000
6.46171 631.000
6.62395 1309.000
6.78620 4787.000
6.94844 768.000
7.11068 491.000
7.27292 433.000
7.43516 452.000
7.59740 426.000
7.75964 398.000
7.92188 426.000
8.08412 632.000
8.24636 2059.000
8.40860 3319.000
8.57084 618.000
8.73309 429.000
8.89533 372.000
9.05757 334.000
9.21981 326.000
9.38205 367.000
9.54429 374.000
9.70653 331.000
9.86877 370.000
10.03101 346.000
10.19325 357.000
10.35549 410.000
10.51773 878.000
10.67998 400.000
10.84222 345.000
11.00446 330.000
11.16670 305.000
11.32894 282.000
11.49118 352.000
11.65342 304.000
11.81566 275.000
11.97790 290.000
12.14014 288.000
12.30238 272.000
12.46463 287.000
12.62687 307.000
12.78911 342.000
12.95135 343.000
13.11359 549.000
13.27583 729.000
13.43807 848.000
13.60031 916.000
13.76255 433.000
13.92479 375.000
14.08703 351.000
14.24927 355.000
14.41152 430.000
14.57376 1082.000
14.73600 926.000
14.89824 1209.000
15.06048 398.000
15.22272 379.000
15.38496 388.000
15.54720 361.000
15.70944 400.000
15.87168 414.000
16.03392 550.000
16.19616 977.000
16.35841 2598.000
16.52065 1279.000
16.68289 1762.000
16.84513 1647.000
17.00737 2573.000
17.16961 2306.000
17.33185 750.000
17.49409 564.000
17.65633 702.000
17.81857 1142.000
17.98081 3279.000
18.14305 4103.000
18.30530 1088.000
18.46754 1103.000
18.62978 2467.000
18.79202 1678.000
18.95426 1206.000
19.11650 964.000
19.27874 1072.000
19.44098 2768.000
19.60322 1912.000
19.76546 1869.000
19.92770 3092.000
20.08995 1967.000
20.25219 2740.000
20.41443 1769.000
20.57667 971.000
20.73891 738.000
20.90115 824.000
21.06339 1198.000
21.22563 2536.000
21.38787 6360.000
21.55011 7957.000
21.71235 3718.000
21.87459 1019.000
22.03684 798.000
22.19908 821.000
22.36132 997.000
22.52356 1173.000
22.68580 927.000
22.84804 1152.000
23.01028 1087.000
23.17252 831.000
23.33476 1468.000
23.49700 2636.000
23.65924 1515.000
23.82148 1070.000
23.98373 755.000
24.14597 839.000
24.30821 1589.000
24.47045 1160.000
24.63269 887.000
24.79493 875.000
24.95717 778.000
25.11941 1311.000
25.28165 1263.000
25.44389 1179.000
25.60613 701.000
25.76837 715.000
25.93062 1223.000
26.09286 1306.000
26.25510 892.000
26.41734 1121.000
26.57958 1325.000
26.74182 1039.000
26.90406 1358.000
27.06630 1195.000
27.22854 961.000
27.39078 1035.000
27.55302 886.000
27.71526 496.000
27.87751 460.000
28.03975 486.000
28.20199 630.000
28.36423 828.000
28.52647 954.000
28.68871 714.000
28.85095 661.000
29.01319 904.000
29.17543 764.000
29.33767 741.000
29.49991 694.000
29.66216 826.000
29.82440 938.000
29.98664 834.000
30.14888 650.000
30.31112 633.000
30.47336 596.000
30.63560 465.000
30.79784 429.000
30.96008 533.000
31.12232 638.000
31.28456 497.000
31.44680 457.000
31.60905 487.000
31.77129 590.000
31.93353 584.000
32.09577 584.000
32.25801 505.000
32.42025 469.000
32.58249 428.000
32.74473 510.000
32.90697 556.000
33.06921 567.000
33.23145 597.000
33.39369 546.000
33.55594 484.000
33.71818 442.000
33.88042 492.000
34.04266 555.000
34.20490 567.000
34.36714 708.000
34.52938 989.000
34.69162 818.000
34.85386 729.000
35.01610 687.000
35.17834 495.000
35.34058 510.000
35.50283 509.000
35.66507 506.000
35.82731 460.000
35.98955 427.000
36.15179 507.000
36.31403 527.000
36.47627 585.000
36.63851 715.000
36.80075 679.000
36.96299 592.000
37.12523 535.000
37.28748 513.000
37.44972 463.000
37.61196 499.000
37.77420 504.000
37.93644 627.000
38.09868 539.000
38.26092 498.000
38.42316 502.000
38.58540 473.000
38.74764 418.000
38.90988 402.000
39.07212 438.000
39.23437 460.000
39.39661 539.000
39.55885 534.000
39.72109 559.000
39.88333 502.000
40.04557 641.000
40.20781 665.000
40.37005 649.000
40.53229 531.000
40.69453 434.000
40.85677 455.000
41.01901 453.000
41.18126 508.000
41.34350 597.000
41.50574 636.000
41.66798 639.000
41.83022 604.000
41.99246 420.000
42.15470 443.000
42.31694 417.000
42.47918 387.000
42.64142 390.000
42.80366 413.000
42.96590 445.000
43.12815 484.000
43.29039 583.000
43.45263 562.000
43.61487 543.000
43.77711 535.000
43.93935 592.000
44.10159 541.000
44.26383 522.000
44.42607 445.000
44.58831 453.000
44.75055 473.000
44.91280 454.000
45.07504 456.000
45.23728 421.000
45.39952 462.000
45.56176 457.000
45.72400 455.000
45.88624 450.000
46.04848 445.000
46.21072 491.000
46.37296 501.000
46.53520 460.000
46.69744 482.000
46.85969 403.000
47.02193 424.000
47.18417 439.000
47.34641 503.000
47.50865 476.000
47.67089 451.000
47.83313 393.000
47.99537 419.000
48.15761 375.000
48.31985 400.000
48.48209 424.000
48.64433 403.000
48.80658 345.000
48.96882 372.000
49.13106 380.000
49.29330 390.000
49.45554 381.000
49.61778 415.000
49.78002 405.000
49.94226 390.000
50.00310 373.000

File: 1912_RVR_10ul_mill_Ace.xy
5.00155 1075.000
5.16379 1077.000
5.32603 1018.000
5.48827 932.000
5.65051 1008.000
5.81275 921.000
5.97499 895.000
6.13723 930.000
6.29947 984.000
6.46171 985.000
6.62395 988.000
6.78620 1102.000
6.94844 1008.000
7.11068 973.000
7.27292 907.000
7.43516 948.000
7.59740 962.000
7.75964 888.000
7.92188 920.000
8.08412 939.000
8.24636 952.000
8.40860 957.000
8.57084 905.000
8.73309 927.000
8.89533 845.000
9.05757 848.000
9.21981 783.000
9.38205 867.000
9.54429 783.000
9.70653 836.000
9.86877 792.000
10.03101 814.000
10.19325 824.000
10.35549 806.000
10.51773 788.000
10.67998 846.000
10.84222 797.000
11.00446 798.000
11.16670 790.000
11.32894 785.000
11.49118 763.000
11.65342 730.000
11.81566 801.000
11.97790 865.000
12.14014 779.000
12.30238 848.000
12.46463 796.000
12.62687 826.000
12.78911 831.000
12.95135 906.000
13.11359 874.000
13.27583 925.000
13.43807 886.000
13.60031 921.000
13.76255 975.000
13.92479 996.000
14.08703 966.000
14.24927 983.000
14.41152 1063.000
14.57376 1058.000
14.73600 1088.000
14.89824 1053.000
15.06048 1101.000
15.22272 1241.000
15.38496 1130.000
15.54720 1237.000
15.70944 1298.000
15.87168 1261.000
16.03392 1322.000
16.19616 1406.000
16.35841 1436.000
16.52065 1526.000
16.68289 1584.000
16.84513 1586.000
17.00737 1650.000
17.16961 1769.000
17.33185 1675.000
17.49409 1672.000
17.65633 1797.000
17.81857 1870.000
17.98081 1906.000
18.14305 2118.000
18.30530 2049.000
18.46754 1911.000
18.62978 2110.000
18.79202 2071.000
18.95426 2055.000
19.11650 2130.000
19.27874 2169.000
19.44098 2188.000
19.60322 2088.000
19.76546 2088.000
19.92770 2113.000
20.08995 2144.000
20.25219 2076.000
20.41443 2119.000
20.57667 2018.000
20.73891 2018.000
20.90115 1890.000
21.06339 1860.000
21.22563 2039.000
21.38787 2117.000
21.55011 2009.000
21.71235 1910.000
21.87459 1786.000
22.03684 1669.000
22.19908 1568.000
22.36132 1564.000
22.52356 1537.000
22.68580 1438.000
22.84804 1492.000
23.01028 1438.000
23.17252 1361.000
23.33476 1434.000
23.49700 1418.000
23.65924 1331.000
23.82148 1313.000
23.98373 1309.000
24.14597 1252.000
24.30821 1312.000
24.47045 1210.000
24.63269 1202.000
24.79493 1215.000
24.95717 1092.000
25.11941 1140.000
25.28165 1125.000
25.44389 1213.000
25.60613 1033.000
25.76837 1021.000
25.93062 1054.000
26.09286 1001.000
26.25510 1050.000
26.41734 935.000
26.57958 1037.000
26.74182 980.000
26.90406 945.000
27.06630 953.000
27.22854 905.000
27.39078 967.000
27.55302 881.000
27.71526 899.000
27.87751 865.000
28.03975 787.000
28.20199 824.000
28.36423 827.000
28.52647 794.000
28.68871 820.000
28.85095 868.000
29.01319 809.000
29.17543 805.000
29.33767 804.000
29.49991 760.000
29.66216 796.000
29.82440 739.000
29.98664 761.000
30.14888 720.000
30.31112 690.000
30.47336 706.000
30.63560 675.000
30.79784 663.000
30.96008 646.000
31.12232 624.000
31.28456 621.000
31.44680 648.000
31.60905 684.000
31.77129 659.000
31.93353 589.000
32.09577 669.000
32.25801 593.000
32.42025 632.000
32.58249 620.000
32.74473 571.000
32.90697 618.000
33.06921 607.000
33.23145 566.000
33.39369 655.000
33.55594 548.000
33.71818 552.000
33.88042 587.000
34.04266 603.000
34.20490 580.000
34.36714 590.000
34.52938 584.000
34.69162 633.000
34.85386 601.000
35.01610 570.000
35.17834 621.000
35.34058 597.000
35.50283 572.000
35.66507 560.000
35.82731 588.000
35.98955 561.000
36.15179 552.000
36.31403 552.000
36.47627 550.000
36.63851 545.000
36.80075 541.000
36.96299 529.000
37.12523 547.000
37.28748 547.000
37.44972 565.000
37.61196 546.000
37.77420 569.000
37.93644 557.000
38.09868 542.000
38.26092 543.000
38.42316 502.000
38.58540 520.000
38.74764 550.000
38.90988 573.000
39.07212 548.000
39.23437 530.000
39.39661 545.000
39.55885 552.000
39.72109 550.000
39.88333 562.000
40.04557 544.000
40.20781 569.000
40.37005 529.000
40.53229 539.000
40.69453 545.000
40.85677 544.000
41.01901 525.000
41.18126 542.000
41.34350 550.000
41.50574 508.000
41.66798 561.000
41.83022 540.000
41.99246 547.000
42.15470 565.000
42.31694 507.000
42.47918 530.000
42.64142 534.000
42.80366 516.000
42.96590 564.000
43.12815 524.000
43.29039 499.000
43.45263 528.000
43.61487 505.000
43.77711 511.000
43.93935 530.000
44.10159 503.000
44.26383 502.000
44.42607 511.000
44.58831 511.000
44.75055 506.000
44.91280 469.000
45.07504 520.000
45.23728 517.000
45.39952 474.000
45.56176 498.000
45.72400 468.000
45.88624 493.000
46.04848 500.000
46.21072 547.000
46.37296 498.000
46.53520 479.000
46.69744 489.000
46.85969 492.000
47.02193 472.000
47.18417 463.000
47.34641 459.000
47.50865 436.000
47.67089 454.000
47.83313 474.000
47.99537 430.000
48.15761 405.000
48.31985 415.000
48.48209 445.000
48.64433 428.000
48.80658 443.000
48.96882 421.000
49.13106 434.000
49.29330 437.000
49.45554 389.000
49.61778 438.000
49.78002 402.000
49.94226 407.000
50.00310 437.000

File: 1964_RVR_50ul_mill_Ace_051120.xy
5.00155 866.000
5.16379 778.000
5.32603 702.000
5.48827 689.000
5.65051 680.000
5.81275 594.000
5.97499 550.000
6.13723 557.000
6.29947 669.000
6.46171 601.000
6.62395 413.000
6.78620 423.000
6.94844 418.000
7.11068 393.000
7.27292 332.000
7.43516 323.000
7.59740 315.000
7.75964 307.000
7.92188 312.000
8.08412 301.000
8.24636 387.000
8.40860 667.000
8.57084 3496.000
8.73309 904.000
8.89533 457.000
9.05757 362.000
9.21981 465.000
9.38205 1430.000
9.54429 991.000
9.70653 1032.000
9.86877 2298.000
10.03101 502.000
10.19325 360.000
10.35549 416.000
10.51773 329.000
10.67998 398.000
10.84222 1168.000
11.00446 682.000
11.16670 365.000
11.32894 302.000
11.49118 287.000
11.65342 306.000
11.81566 274.000
11.97790 237.000
12.14014 318.000
12.30238 352.000
12.46463 285.000
12.62687 279.000
12.78911 300.000
12.95135 404.000
13.11359 394.000
13.27583 622.000
13.43807 434.000
13.60031 1287.000
13.76255 1769.000
13.92479 427.000
14.08703 324.000
14.24927 346.000
14.41152 303.000
14.57376 338.000
14.73600 463.000
14.89824 550.000
15.06048 344.000
15.22272 364.000
15.38496 407.000
15.54720 733.000
15.70944 562.000
15.87168 860.000
16.03392 2977.000
16.19616 695.000
16.35841 1112.000
16.52065 1361.000
16.68289 1940.000
16.84513 582.000
17.00737 617.000
17.16961 1537.000
17.33185 3434.000
17.49409 982.000
17.65633 3926.000
17.81857 2388.000
17.98081 935.000
18.14305 1724.000
18.30530 5361.000
18.46754 1521.000
18.62978 899.000
18.79202 2089.000
18.95426 1834.000
19.11650 832.000
19.27874 1239.000
19.44098 2234.000
19.60322 1606.000
19.76546 2591.000
19.92770 3086.000
20.08995 2392.000
20.25219 1480.000
20.41443 1549.000
20.57667 3538.000
20.73891 1051.000
20.90115 980.000
21.06339 832.000
21.22563 1289.000
21.38787 2512.000
21.55011 3511.000
21.71235 3166.000
21.87459 1045.000
22.03684 1599.000
22.19908 1805.000
22.36132 720.000
22.52356 997.000
22.68580 1463.000
22.84804 817.000
23.01028 821.000
23.17252 676.000
23.33476 1105.000
23.49700 1023.000
23.65924 999.000
23.82148 961.000
23.98373 1183.000
24.14597 1280.000
24.30821 839.000
24.47045 711.000
24.63269 1066.000
24.79493 1114.000
24.95717 679.000
25.11941 1074.000
25.28165 2254.000
25.44389 1300.000
25.60613 799.000
25.76837 1189.000
25.93062 1002.000
26.09286 1593.000
26.25510 1142.000
26.41734 1095.000
26.57958 719.000
26.74182 626.000
26.90406 800.000
27.06630 478.000
27.22854 564.000
27.39078 593.000
27.55302 604.000
27.71526 456.000
27.87751 434.000
28.03975 460.000
28.20199 472.000
28.36423 811.000
28.52647 1617.000
28.68871 1068.000
28.85095 627.000
29.01319 431.000
29.17543 527.000
29.33767 369.000
29.49991 500.000
29.66216 926.000
29.82440 1145.000
29.98664 1006.000
30.14888 939.000
30.31112 652.000
30.47336 458.000
30.63560 456.000
30.79784 572.000
30.96008 528.000
31.12232 587.000
31.28456 798.000
31.44680 843.000
31.60905 1265.000
31.77129 819.000
31.93353 731.000
32.09577 656.000
32.25801 509.000
32.42025 527.000
32.58249 442.000
32.74473 412.000
32.90697 468.000
33.06921 604.000
33.23145 518.000
33.39369 477.000
33.55594 636.000
33.71818 614.000
33.88042 461.000
34.04266 412.000
34.20490 417.000
34.36714 335.000
34.52938 424.000
34.69162 463.000
34.85386 640.000
35.01610 746.000
35.17834 707.000
35.34058 594.000
35.50283 451.000
35.66507 394.000
35.82731 483.000
35.98955 614.000
36.15179 859.000
36.31403 705.000
36.47627 495.000
36.63851 462.000
36.80075 432.000
36.96299 387.000
37.12523 538.000
37.28748 539.000
37.44972 410.000
37.61196 377.000
37.77420 434.000
37.93644 502.000
38.09868 434.000
38.26092 563.000
38.42316 615.000
38.58540 433.000
38.74764 457.000
38.90988 592.000
39.07212 670.000
39.23437 429.000
39.39661 443.000
39.55885 528.000
39.72109 473.000
39.88333 482.000
40.04557 454.000
40.20781 516.000
40.37005 673.000
40.53229 796.000
40.69453 614.000
40.85677 417.000
41.01901 455.000
41.18126 399.000
41.34350 401.000
41.50574 359.000
41.66798 394.000
41.83022 374.000
41.99246 361.000
42.15470 366.000
42.31694 424.000
42.47918 480.000
42.64142 426.000
42.80366 408.000
42.96590 427.000
43.12815 471.000
43.29039 483.000
43.45263 452.000
43.61487 498.000
43.77711 470.000
43.93935 384.000
44.10159 461.000
44.26383 488.000
44.42607 603.000
44.58831 603.000
44.75055 546.000
44.91280 441.000
45.07504 479.000
45.23728 455.000
45.39952 501.000
45.56176 463.000
45.72400 431.000
45.88624 429.000
46.04848 447.000
46.21072 488.000
46.37296 502.000
46.53520 526.000
46.69744 447.000
46.85969 415.000
47.02193 438.000
47.18417 446.000
47.34641 468.000
47.50865 462.000
47.67089 442.000
47.83313 454.000
47.99537 461.000
48.15761 411.000
48.31985 459.000
48.48209 387.000
48.64433 423.000
48.80658 440.000
48.96882 457.000
49.13106 477.000
49.29330 417.000
49.45554 357.000
49.61778 376.000
49.78002 387.000
49.94226 393.000
50.00310 394.000