Folder: python_study_group/Task01/nick/files/ESI_material_XRD/steady_state/crystal_size_analysis/Volumes_MeCN

Note: Task01/nick/files/ESI_material_XRD/steady_state/crystal_size_analysis/Volumes_MeCN/output_quant_size_all.txt
file_name	Rwp	chisq	wtpc_Form1	wtpc_Form1_esd	wtpc_Form2	wtpc_Form2_esd	CS_L_Form1	CS_L_Form1_esd	CS_L_Form2	CS_L_Form2_esd	use_(Y_or_N)	comments	
1926_RVR_10ul_mill_MeCN.xy	      13.72	      4.141	       94.2	        1.6	        5.8	        1.6	70.053663	1.277720	10.092773	5.165117	Y	not_Form2
1925_RVR_20ul_mill_MeCN.xy	      13.05	      3.974	       94.8	        1.6	        5.2	        1.6	69.498375	1.250184	10.092773	5.678819	Y	not_Form2
1947_RVR_30ul_mill_MeCN.xy	      10.90	      3.563	       73.9	        0.6	       26.1	        0.6	68.012706	1.322878	81.779107	4.383469	Y
1919_RVR_40ul_mill_MeCN.xy	      11.27	      3.706	       37.4	        0.5	       62.6	        0.5	66.536228	2.133390	82.034861	1.861057	Y
1962_RVR_50ul_mill_MeCN_081020.xy	      14.11	      4.420	       10.3	        0.5	       89.7	        0.5	51.006541	4.987119	97.110476	1.653697	Y

Note: README.md
# Python Study Group 15

## Task 01: Recursively remove unwanted files from a directory

File: 1919_RVR_40ul_mill_MeCN.xy
5.00155 910.000
5.16379 900.000
5.32603 722.000
5.48827 698.000
5.65051 617.000
5.81275 594.000
5.97499 569.000
6.13723 586.000
6.29947 641.000
6.46171 793.000
6.62395 871.000
6.78620 2633.000
6.94844 1066.000
7.11068 504.000
7.27292 459.000
7.43516 412.000
7.59740 448.000
7.75964 467.000
7.92188 393.000
8.08412 515.000
8.24636 1121.000
8.40860 3439.000
8.57084 2573.000
8.73309 1774.000
8.89533 583.000
9.05757 531.000
9.21981 515.000
9.38205 996.000
9.54429 1714.000
9.70653 876.000
9.86877 2747.000
10.03101 697.000
10.19325 472.000
10.35549 482.000
10.51773 748.000
10.67998 585.000
10.84222 822.000
11.00446 1330.000
11.16670 434.000
11.32894 389.000
11.49118 320.000
11.65342 420.000
11.81566 391.000
11.97790 371.000
12.14014 383.000
12.30238 382.000
12.46463 435.000
12.62687 358.000
12.78911 366.000
12.95135 443.000
13.11359 576.000
13.27583 926.000
13.43807 786.000
13.60031 1425.000
13.76255 1976.000
13.92479 743.000
14.08703 479.000
14.24927 453.000
14.41152 391.000
14.57376 721.000
14.73600 1153.000
14.89824 1007.000
15.06048 538.000
15.22272 413.000
15.38496 495.000
15.54720 696.000
15.70944 796.000
15.87168 799.000
16.03392 2188.000
16.19616 1305.000
16.35841 2213.000
16.52065 1620.000
16.68289 3058.000
16.84513 1928.000
17.00737 1486.000
17.16961 2509.000
17.33185 3356.000
17.49409 1229.000
17.65633 2332.000
17.81857 4284.000
17.98081 2238.000
18.14305 3782.000
18.30530 4256.000
18.46754 3021.000
18.62978 1854.000
18.79202 2203.000
18.95426 2681.000
19.11650 1479.000
19.27874 1322.000
19.44098 2848.000
19.60322 2785.000
19.76546 3065.000
19.92770 3795.000
20.08995 3861.000
20.25219 2568.000
20.41443 2797.000
20.57667 2965.000
20.73891 1870.000
20.90115 1215.000
21.06339 1162.000
21.22563 1891.000
21.38787 4466.000
21.55011 6933.000
21.71235 6389.000
21.87459 1600.000
22.03684 1428.000
22.19908 2094.000
22.36132 1097.000
22.52356 1326.000
22.68580 1421.000
22.84804 1410.000
23.01028 1251.000
23.17252 918.000
23.33476 1407.000
23.49700 2411.000
23.65924 1710.000
23.82148 1270.000
23.98373 1330.000
24.14597 1410.000
24.30821 1320.000
24.47045 1713.000
24.63269 1107.000
24.79493 1532.000
24.95717 989.000
25.11941 1269.000
25.28165 2382.000
25.44389 1904.000
25.60613 982.000
25.76837 1170.000
25.93062 1279.000
26.09286 1939.000
26.25510 1452.000
26.41734 1410.000
26.57958 1368.000
26.74182 1088.000
26.90406 1267.000
27.06630 1088.000
27.22854 934.000
27.39078 992.000
27.55302 997.000
27.71526 587.000
27.87751 620.000
28.03975 607.000
28.20199 650.000
28.36423 873.000
28.52647 1517.000
28.68871 1393.000
28.85095 940.000
29.01319 768.000
29.17543 787.000
29.33767 744.000
29.49991 684.000
29.66216 953.000
29.82440 1307.000
29.98664 1118.000
30.14888 1123.000
30.31112 857.000
30.47336 786.000
30.63560 567.000
30.79784 622.000
30.96008 711.000
31.12232 803.000
31.28456 838.000
31.44680 856.000
31.60905 1135.000
31.77129 1032.000
31.93353 891.000
32.09577 941.000
32.25801 569.000
32.42025 674.000
32.58249 554.000
32.74473 571.000
32.90697 615.000
33.06921 711.000
33.23145 692.000
33.39369 719.000
33.55594 628.000
33.71818 705.000
33.88042 554.000
34.04266 582.000
34.20490 645.000
34.36714 630.000
34.52938 688.000
34.69162 808.000
34.85386 757.000
35.01610 950.000
35.17834 804.000
35.34058 782.000
35.50283 566.000
35.66507 538.000
35.82731 540.000
35.98955 622.000
36.15179 810.000
36.31403 870.000
36.47627 713.000
36.63851 716.000
36.80075 703.000
36.96299 634.000
37.12523 598.000
37.28748 667.000
37.44972 528.000
37.61196 531.000
37.77420 584.000
37.93644 681.000
38.09868 683.000
38.26092 673.000
38.42316 715.000
38.58540 615.000
38.74764 630.000
38.90988 610.000
39.07212 690.000
39.23437 576.000
39.39661 595.000
39.55885 632.000
39.72109 662.000
39.88333 645.000
40.04557 623.000
40.20781 739.000
40.37005 802.000
40.53229 838.000
40.69453 682.000
40.85677 571.000
41.01901 564.000
41.18126 583.000
41.34350 645.000
41.50574 574.000
41.66798 577.000
41.83022 632.000
41.99246 469.000
42.15470 483.000
42.31694 520.000
42.47918 520.000
42.64142 541.000
42.80366 514.000
42.96590 508.000
43.12815 558.000
43.29039 643.000
43.45263 598.000
43.61487 592.000
43.77711 652.000
43.93935 643.000
44.10159 586.000
44.26383 580.000
44.42607 653.000
44.58831 609.000
44.75055 638.000
44.91280 581.000
45.07504 607.000
45.23728 535.000
45.39952 503.000
45.56176 611.000
45.72400 581.000
45.88624 501.000
46.04848 491.000
46.21072 573.000
46.37296 601.000
46.53520 608.000
46.69744 619.000
46.85969 522.000
47.02193 516.000
47.18417 521.000
47.34641 534.000
47.50865 589.000
47.67089 548.000
47.83313 551.000
47.99537 546.000
48.15761 514.000
48.31985 513.000
48.48209 509.000
48.64433 482.000
48.80658 476.000
48.96882 467.000
49.13106 460.000
49.29330 462.000
49.45554 490.000
49.61778 446.000
49.78002 488.000
49.94226 453.000
50.00310 449.000

File: 1925_RVR_20ul_mill_MeCN.xy
5.00155 928.000
5.16379 793.000
5.32603 716.000
5.48827 671.000
5.65051 611.000
5.81275 583.000
5.97499 528.000
6.13723 540.000
6.29947 522.000
6.46171 637.000
6.62395 1429.000
6.78620 5258.000
6.94844 987.000
7.11068 518.000
7.27292 456.000
7.43516 409.000
7.59740 403.000
7.75964 431.000
7.92188 449.000
8.08412 659.000
8.24636 2116.000
8.40860 3768.000
8.57084 626.000
8.73309 451.000
8.89533 438.000
9.05757 387.000
9.21981 398.000
9.38205 360.000
9.54429 369.000
9.70653 361.000
9.86877 432.000
10.03101 366.000
10.19325 340.000
10.35549 395.000
10.51773 1001.000
10.67998 422.000
10.84222 365.000
11.00446 331.000
11.16670 366.000
11.32894 323.000
11.49118 319.000
11.65342 328.000
11.81566 314.000
11.97790 273.000
12.14014 303.000
12.30238 337.000
12.46463 302.000
12.62687 342.000
12.78911 331.000
12.95135 359.000
13.11359 619.000
13.27583 732.000
13.43807 903.000
13.60031 1106.000
13.76255 430.000
13.92479 394.000
14.08703 360.000
14.24927 395.000
14.41152 438.000
14.57376 1233.000
14.73600 1139.000
14.89824 1227.000
15.06048 500.000
15.22272 417.000
15.38496 391.000
15.54720 388.000
15.70944 435.000
15.87168 450.000
16.03392 581.000
16.19616 962.000
16.35841 2891.000
16.52065 1419.000
16.68289 1841.000
16.84513 1870.000
17.00737 2627.000
17.16961 2940.000
17.33185 885.000
17.49409 652.000
17.65633 742.000
17.81857 999.000
17.98081 3375.000
18.14305 5088.000
18.30530 1311.000
18.46754 1106.000
18.62978 2699.000
18.79202 2021.000
18.95426 1373.000
19.11650 1033.000
19.27874 1079.000
19.44098 2899.000
19.60322 2096.000
19.76546 1936.000
19.92770 3527.000
20.08995 2143.000
20.25219 3057.000
20.41443 2260.000
20.57667 1005.000
20.73891 844.000
20.90115 945.000
21.06339 1288.000
21.22563 2567.000
21.38787 6705.000
21.55011 8923.000
21.71235 4573.000
21.87459 1227.000
22.03684 830.000
22.19908 848.000
22.36132 1068.000
22.52356 1245.000
22.68580 955.000
22.84804 1352.000
23.01028 1178.000
23.17252 856.000
23.33476 1541.000
23.49700 2897.000
23.65924 1851.000
23.82148 1265.000
23.98373 804.000
24.14597 839.000
24.30821 1723.000
24.47045 1314.000
24.63269 994.000
24.79493 950.000
24.95717 848.000
25.11941 1426.000
25.28165 1455.000
25.44389 1275.000
25.60613 793.000
25.76837 784.000
25.93062 1214.000
26.09286 1488.000
26.25510 981.000
26.41734 1210.000
26.57958 1383.000
26.74182 1221.000
26.90406 1546.000
27.06630 1322.000
27.22854 1095.000
27.39078 1177.000
27.55302 971.000
27.71526 568.000
27.87751 589.000
28.03975 534.000
28.20199 621.000
28.36423 903.000
28.52647 1068.000
28.68871 809.000
28.85095 809.000
29.01319 987.000
29.17543 893.000
29.33767 880.000
29.49991 805.000
29.66216 872.000
29.82440 953.000
29.98664 968.000
30.14888 740.000
30.31112 748.000
30.47336 705.000
30.63560 567.000
30.79784 457.000
30.96008 597.000
31.12232 702.000
31.28456 573.000
31.44680 484.000
31.60905 581.000
31.77129 636.000
31.93353 653.000
32.09577 596.000
32.25801 535.000
32.42025 512.000
32.58249 464.000
32.74473 489.000
32.90697 601.000
33.06921 629.000
33.23145 712.000
33.39369 674.000
33.55594 560.000
33.71818 513.000
33.88042 546.000
34.04266 632.000
34.20490 594.000
34.36714 773.000
34.52938 1150.000
34.69162 891.000
34.85386 806.000
35.01610 771.000
35.17834 664.000
35.34058 610.000
35.50283 567.000
35.66507 525.000
35.82731 457.000
35.98955 481.000
36.15179 577.000
36.31403 595.000
36.47627 675.000
36.63851 793.000
36.80075 834.000
36.96299 701.000
37.12523 667.000
37.28748 540.000
37.44972 521.000
37.61196 528.000
37.77420 587.000
37.93644 659.000
38.09868 625.000
38.26092 564.000
38.42316 540.000
38.58540 508.000
38.74764 467.000
38.90988 478.000
39.07212 468.000
39.23437 532.000
39.39661 540.000
39.55885 595.000
39.72109 585.000
39.88333 577.000
40.04557 649.000
40.20781 739.000
40.37005 795.000
40.53229 604.000
40.69453 485.000
40.85677 516.000
41.01901 494.000
41.18126 553.000
41.34350 623.000
41.50574 724.000
41.66798 697.000
41.83022 630.000
41.99246 539.000
42.15470 440.000
42.31694 499.000
42.47918 407.000
42.64142 423.000
42.80366 475.000
42.96590 451.000
43.12815 505.000
43.29039 645.000
43.45263 605.000
43.61487 589.000
43.77711 573.000
43.93935 654.000
44.10159 587.000
44.26383 536.000
44.42607 511.000
44.58831 482.000
44.75055 541.000
44.91280 508.000
45.07504 507.000
45.23728 485.000
45.39952 483.000
45.56176 491.000
45.72400 510.000
45.88624 493.000
46.04848 494.000
46.21072 500.000
46.37296 522.000
46.53520 500.000
46.69744 539.000
46.85969 518.000
47.02193 488.000
47.18417 512.000
47.34641 600.000
47.50865 533.000
47.67089 515.000
47.83313 516.000
47.99537 484.000
48.15761 427.000
48.31985 459.000
48.48209 430.000
48.64433 471.000
48.80658 427.000
48.96882 407.000
49.13106 415.000
49.29330 453.000
49.45554 433.000
49.61778 458.000
49.78002 439.000
49.94226 492.000
50.00310 480.000

File: 1926_RVR_10ul_mill_MeCN.xy
5.00155 857.000
5.16379 824.000
5.32603 684.000
5.48827 592.000
5.65051 642.000
5.81275 546.000
5.97499 528.000
6.13723 506.000
6.29947 563.000
6.46171 630.000
6.62395 1413.000
6.78620 4992.000
6.94844 896.000
7.11068 495.000
7.27292 419.000
7.43516 460.000
7.59740 435.000
7.75964 421.000
7.92188 436.000
8.08412 672.000
8.24636 2356.000
8.40860 3252.000
8.57084 607.000
8.73309 427.000
8.89533 415.000
9.05757 390.000
9.21981 377.000
9.38205 388.000
9.54429 353.000
9.70653 320.000
9.86877 386.000
10.03101 351.000
10.19325 363.000
10.35549 400.000
10.51773 934.000
10.67998 456.000
10.84222 340.000
11.00446 323.000
11.16670 324.000
11.32894 318.000
11.49118 309.000
11.65342 270.000
11.81566 335.000
11.97790 312.000
12.14014 313.000
12.30238 303.000
12.46463 312.000
12.62687 322.000
12.78911 342.000
12.95135 349.000
13.11359 595.000
13.27583 773.000
13.43807 942.000
13.60031 993.000
13.76255 431.000
13.92479 373.000
14.08703 388.000
14.24927 390.000
14.41152 470.000
14.57376 1166.000
14.73600 1209.000
14.89824 1218.000
15.06048 463.000
15.22272 385.000
15.38496 419.000
15.54720 382.000
15.70944 383.000
15.87168 440.000
16.03392 478.000
16.19616 921.000
16.35841 2860.000
16.52065 1418.000
16.68289 1884.000
16.84513 1722.000
17.00737 2659.000
17.16961 2926.000
17.33185 794.000
17.49409 653.000
17.65633 663.000
17.81857 942.000
17.98081 3295.000
18.14305 4917.000
18.30530 1165.000
18.46754 1111.000
18.62978 2597.000
18.79202 1874.000
18.95426 1386.000
19.11650 1040.000
19.27874 1080.000
19.44098 2874.000
19.60322 2082.000
19.76546 1933.000
19.92770 3438.000
20.08995 2154.000
20.25219 2913.000
20.41443 2096.000
20.57667 956.000
20.73891 823.000
20.90115 875.000
21.06339 1232.000
21.22563 2572.000
21.38787 6850.000
21.55011 9001.000
21.71235 4357.000
21.87459 1258.000
22.03684 838.000
22.19908 822.000
22.36132 1036.000
22.52356 1271.000
22.68580 956.000
22.84804 1356.000
23.01028 1128.000
23.17252 880.000
23.33476 1501.000
23.49700 2908.000
23.65924 1729.000
23.82148 1271.000
23.98373 783.000
24.14597 865.000
24.30821 1742.000
24.47045 1391.000
24.63269 933.000
24.79493 982.000
24.95717 832.000
25.11941 1394.000
25.28165 1404.000
25.44389 1225.000
25.60613 769.000
25.76837 754.000
25.93062 1279.000
26.09286 1471.000
26.25510 1033.000
26.41734 1130.000
26.57958 1368.000
26.74182 1184.000
26.90406 1514.000
27.06630 1297.000
27.22854 1034.000
27.39078 1198.000
27.55302 854.000
27.71526 534.000
27.87751 501.000
28.03975 527.000
28.20199 591.000
28.36423 911.000
28.52647 1055.000
28.68871 762.000
28.85095 802.000
29.01319 990.000
29.17543 880.000
29.33767 808.000
29.49991 802.000
29.66216 834.000
29.82440 930.000
29.98664 955.000
30.14888 660.000
30.31112 731.000
30.47336 704.000
30.63560 464.000
30.79784 472.000
30.96008 591.000
31.12232 655.000
31.28456 606.000
31.44680 476.000
31.60905 562.000
31.77129 660.000
31.93353 662.000
32.09577 599.000
32.25801 538.000
32.42025 466.000
32.58249 491.000
32.74473 537.000
32.90697 570.000
33.06921 612.000
33.23145 699.000
33.39369 646.000
33.55594 493.000
33.71818 526.000
33.88042 570.000
34.04266 614.000
34.20490 615.000
34.36714 759.000
34.52938 1115.000
34.69162 847.000
34.85386 848.000
35.01610 757.000
35.17834 621.000
35.34058 553.000
35.50283 602.000
35.66507 550.000
35.82731 435.000
35.98955 469.000
36.15179 537.000
36.31403 548.000
36.47627 679.000
36.63851 741.000
36.80075 808.000
36.96299 639.000
37.12523 609.000
37.28748 573.000
37.44972 551.000
37.61196 571.000
37.77420 609.000
37.93644 648.000
38.09868 635.000
38.26092 551.000
38.42316 531.000
38.58540 505.000
38.74764 438.000
38.90988 457.000
39.07212 481.000
39.23437 515.000
39.39661 567.000
39.55885 610.000
39.72109 590.000
39.88333 550.000
40.04557 673.000
40.20781 706.000
40.37005 655.000
40.53229 630.000
40.69453 491.000
40.85677 475.000
41.01901 515.000
41.18126 551.000
41.34350 640.000
41.50574 676.000
41.66798 716.000
41.83022 645.000
41.99246 494.000
42.15470 522.000
42.31694 471.000
42.47918 449.000
42.64142 447.000
42.80366 439.000
42.96590 457.000
43.12815 543.000
43.29039 626.000
43.45263 543.000
43.61487 601.000
43.77711 635.000
43.93935 663.000
44.10159 583.000
44.26383 542.000
44.42607 501.000
44.58831 513.000
44.75055 513.000
44.91280 510.000
45.07504 499.000
45.23728 424.000
45.39952 485.000
45.56176 493.000
45.72400 498.000
45.88624 498.000
46.04848 489.000
46.21072 475.000
46.37296 479.000
46.53520 520.000
46.69744 498.000
46.85969 496.000
47.02193 468.000
47.18417 514.000
47.34641 566.000
47.50865 558.000
47.67089 534.000
47.83313 478.000
47.99537 472.000
48.15761 438.000
48.31985 419.000
48.48209 397.000
48.64433 407.000
48.80658 383.000
48.96882 399.000
49.13106 452.000
49.29330 353.000
49.45554 388.000
49.61778 429.000
49.78002 444.000
49.94226 403.000
50.00310 448.000

File: 1947_RVR_30ul_mill_MeCN.xy
5.00155 862.000
5.16379 752.000
5.32603 702.000
5.48827 674.000
5.65051 652.000
5.81275 600.000
5.97499 571.000
6.13723 539.000
6.29947 523.000
6.46171 687.000
6.62395 1170.000
6.78620 4440.000
6.94844 1420.000
7.11068 576.000
7.27292 459.000
7.43516 463.000
7.59740 491.000
7.75964 530.000
7.92188 498.000
8.08412 621.000
8.24636 1784.000
8.40860 4798.000
8.57084 1429.000
8.73309 897.000
8.89533 554.000
9.05757 495.000
9.21981 469.000
9.38205 613.000
9.54429 878.000
9.70653 543.000
9.86877 1261.000
10.03101 522.000
10.19325 405.000
10.35549 501.000
10.51773 991.000
10.67998 578.000
10.84222 577.000
11.00446 715.000
11.16670 380.000
11.32894 365.000
11.49118 390.000
11.65342 404.000
11.81566 390.000
11.97790 381.000
12.14014 386.000
12.30238 390.000
12.46463 432.000
12.62687 377.000
12.78911 413.000
12.95135 423.000
13.11359 649.000
13.27583 962.000
13.43807 985.000
13.60031 1505.000
13.76255 1188.000
13.92479 591.000
14.08703 425.000
14.24927 432.000
14.41152 500.000
14.57376 986.000
14.73600 1631.000
14.89824 1349.000
15.06048 658.000
15.22272 479.000
15.38496 462.000
15.54720 557.000
15.70944 618.000
15.87168 659.000
16.03392 1275.000
16.19616 1101.000
16.35841 3047.000
16.52065 1791.000
16.68289 2566.000
16.84513 2411.000
17.00737 2228.000
17.16961 3310.000
17.33185 1900.000
17.49409 926.000
17.65633 1365.000
17.81857 2325.000
17.98081 2836.000
18.14305 5323.000
18.30530 2531.000
18.46754 1886.000
18.62978 2481.000
18.79202 2386.000
18.95426 1846.000
19.11650 1380.000
19.27874 1238.000
19.44098 3046.000
19.60322 2969.000
19.76546 2444.000
19.92770 3987.000
20.08995 2915.000
20.25219 3139.000
20.41443 3065.000
20.57667 1857.000
20.73891 1210.000
20.90115 1053.000
21.06339 1265.000
21.22563 2291.000
21.38787 6242.000
21.55011 8969.000
21.71235 6017.000
21.87459 1509.000
22.03684 1204.000
22.19908 1376.000
22.36132 1080.000
22.52356 1493.000
22.68580 1250.000
22.84804 1413.000
23.01028 1423.000
23.17252 996.000
23.33476 1466.000
23.49700 2926.000
23.65924 2090.000
23.82148 1435.000
23.98373 1088.000
24.14597 1144.000
24.30821 1584.000
24.47045 1860.000
24.63269 1120.000
24.79493 1303.000
24.95717 926.000
25.11941 1454.000
25.28165 2017.000
25.44389 1588.000
25.60613 953.000
25.76837 941.000
25.93062 1232.000
26.09286 1870.000
26.25510 1226.000
26.41734 1265.000
26.57958 1489.000
26.74182 1185.000
26.90406 1545.000
27.06630 1478.000
27.22854 1067.000
27.39078 1128.000
27.55302 1158.000
27.71526 677.000
27.87751 586.000
28.03975 605.000
28.20199 702.000
28.36423 938.000
28.52647 1285.000
28.68871 1088.000
28.85095 863.000
29.01319 1005.000
29.17543 998.000
29.33767 946.000
29.49991 857.000
29.66216 1029.000
29.82440 1213.000
29.98664 1125.000
30.14888 896.000
30.31112 839.000
30.47336 777.000
30.63560 552.000
30.79784 615.000
30.96008 659.000
31.12232 844.000
31.28456 705.000
31.44680 682.000
31.60905 775.000
31.77129 859.000
31.93353 775.000
32.09577 750.000
32.25801 667.000
32.42025 610.000
32.58249 501.000
32.74473 628.000
32.90697 685.000
33.06921 682.000
33.23145 694.000
33.39369 714.000
33.55594 642.000
33.71818 612.000
33.88042 569.000
34.04266 638.000
34.20490 686.000
34.36714 671.000
34.52938 1013.000
34.69162 938.000
34.85386 803.000
35.01610 831.000
35.17834 767.000
35.34058 663.000
35.50283 639.000
35.66507 566.000
35.82731 547.000
35.98955 549.000
36.15179 646.000
36.31403 704.000
36.47627 706.000
36.63851 772.000
36.80075 790.000
36.96299 716.000
37.12523 669.000
37.28748 663.000
37.44972 549.000
37.61196 556.000
37.77420 617.000
37.93644 715.000
38.09868 663.000
38.26092 653.000
38.42316 659.000
38.58540 583.000
38.74764 543.000
38.90988 534.000
39.07212 545.000
39.23437 543.000
39.39661 587.000
39.55885 664.000
39.72109 695.000
39.88333 620.000
40.04557 701.000
40.20781 809.000
40.37005 828.000
40.53229 755.000
40.69453 579.000
40.85677 572.000
41.01901 535.000
41.18126 563.000
41.34350 683.000
41.50574 660.000
41.66798 679.000
41.83022 709.000
41.99246 555.000
42.15470 490.000
42.31694 497.000
42.47918 500.000
42.64142 494.000
42.80366 464.000
42.96590 521.000
43.12815 597.000
43.29039 623.000
43.45263 645.000
43.61487 651.000
43.77711 702.000
43.93935 679.000
44.10159 668.000
44.26383 620.000
44.42607 588.000
44.58831 566.000
44.75055 549.000
44.91280 588.000
45.07504 613.000
45.23728 564.000
45.39952 550.000
45.56176 541.000
45.72400 540.000
45.88624 537.000
46.04848 527.000
46.21072 505.000
46.37296 586.000
46.53520 549.000
46.69744 587.000
46.85969 535.000
47.02193 498.000
47.18417 582.000
47.34641 579.000
47.50865 541.000
47.67089 559.000
47.83313 527.000
47.99537 524.000
48.15761 517.000
48.31985 508.000
48.48209 501.000
48.64433 487.000
48.80658 460.000
48.96882 421.000
49.13106 474.000
49.29330 475.000
49.45554 470.000
49.61778 466.000
49.78002 471.000
49.94226 456.000
50.00310 454.000

File: 1962_RVR_50ul_mill_MeCN_081020.xy
5.00155 818.000
5.16379 778.000
5.32603 687.000
5.48827 657.000
5.65051 545.000
5.81275 504.000
5.97499 475.000
6.13723 494.000
6.29947 565.000
6.46171 812.000
6.62395 490.000
6.78620 890.000
6.94844 551.000
7.11068 377.000
7.27292 330.000
7.43516 352.000
7.59740 362.000
7.75964 384.000
7.92188 357.000
8.08412 362.000
8.24636 518.000
8.40860 1291.000
8.57084 3622.000
8.73309 1806.000
8.89533 459.000
9.05757 418.000
9.21981 465.000
9.38205 1239.000
9.54429 2139.000
9.70653 986.000
9.86877 4213.000
10.03101 611.000
10.19325 401.000
10.35549 422.000
10.51773 518.000
10.67998 437.000
10.84222 1022.000
11.00446 1569.000
11.16670 396.000
11.32894 334.000
11.49118 340.000
11.65342 343.000
11.81566 334.000
11.97790 320.000
12.14014 329.000
12.30238 380.000
12.46463 346.000
12.62687 314.000
12.78911 295.000
12.95135 447.000
13.11359 473.000
13.27583 1004.000
13.43807 552.000
13.60031 1268.000
13.76255 2471.000
13.92479 593.000
14.08703 357.000
14.24927 353.000
14.41152 341.000
14.57376 383.000
14.73600 572.000
14.89824 884.000
15.06048 355.000
15.22272 378.000
15.38496 421.000
15.54720 725.000
15.70944 766.000
15.87168 712.000
16.03392 3250.000
16.19616 953.000
16.35841 1394.000
16.52065 1349.000
16.68289 3514.000
16.84513 953.000
17.00737 801.000
17.16961 1547.000
17.33185 4766.000
17.49409 1176.000
17.65633 3423.000
17.81857 4740.000
17.98081 1576.000
18.14305 1996.000
18.30530 5778.000
18.46754 3210.000
18.62978 1167.000
18.79202 1937.000
18.95426 2999.000
19.11650 1093.000
19.27874 1282.000
19.44098 2619.000
19.60322 1998.000
19.76546 3488.000
19.92770 3158.000
20.08995 4314.000
20.25219 1988.000
20.41443 2022.000
20.57667 3716.000
20.73891 1470.000
20.90115 1243.000
21.06339 959.000
21.22563 1494.000
21.38787 3076.000
21.55011 4134.000
21.71235 6008.000
21.87459 1233.000
22.03684 1450.000
22.19908 2810.000
22.36132 883.000
22.52356 1146.000
22.68580 1477.000
22.84804 1095.000
23.01028 942.000
23.17252 797.000
23.33476 1205.000
23.49700 1624.000
23.65924 1226.000
23.82148 1089.000
23.98373 1435.000
24.14597 1488.000
24.30821 1014.000
24.47045 1210.000
24.63269 1037.000
24.79493 1472.000
24.95717 822.000
25.11941 1095.000
25.28165 2562.000
25.44389 1830.000
25.60613 823.000
25.76837 1310.000
25.93062 1087.000
26.09286 1962.000
26.25510 1376.000
26.41734 1394.000
26.57958 980.000
26.74182 769.000
26.90406 1093.000
27.06630 627.000
27.22854 676.000
27.39078 772.000
27.55302 806.000
27.71526 483.000
27.87751 517.000
28.03975 552.000
28.20199 533.000
28.36423 839.000
28.52647 1719.000
28.68871 1379.000
28.85095 814.000
29.01319 555.000
29.17543 683.000
29.33767 561.000
29.49991 532.000
29.66216 896.000
29.82440 1430.000
29.98664 1083.000
30.14888 1086.000
30.31112 787.000
30.47336 598.000
30.63560 532.000
30.79784 602.000
30.96008 667.000
31.12232 662.000
31.28456 894.000
31.44680 917.000
31.60905 1350.000
31.77129 1064.000
31.93353 793.000
32.09577 846.000
32.25801 569.000
32.42025 625.000
32.58249 517.000
32.74473 457.000
32.90697 577.000
33.06921 661.000
33.23145 627.000
33.39369 542.000
33.55594 600.000
33.71818 687.000
33.88042 523.000
34.04266 426.000
34.20490 485.000
34.36714 449.000
34.52938 471.000
34.69162 565.000
34.85386 684.000
35.01610 878.000
35.17834 803.000
35.34058 781.000
35.50283 469.000
35.66507 445.000
35.82731 485.000
35.98955 650.000
36.15179 834.000
36.31403 879.000
36.47627 630.000
36.63851 503.000
36.80075 471.000
36.96299 472.000
37.12523 577.000
37.28748 697.000
37.44972 497.000
37.61196 426.000
37.77420 459.000
37.93644 585.000
38.09868 497.000
38.26092 626.000
38.42316 612.000
38.58540 507.000
38.74764 545.000
38.90988 691.000
39.07212 713.000
39.23437 565.000
39.39661 527.000
39.55885 575.000
39.72109 465.000
39.88333 516.000
40.04557 507.000
40.20781 581.000
40.37005 725.000
40.53229 895.000
40.69453 681.000
40.85677 489.000
41.01901 459.000
41.18126 538.000
41.34350 507.000
41.50574 436.000
41.66798 454.000
41.83022 399.000
41.99246 382.000
42.15470 414.000
42.31694 458.000
42.47918 477.000
42.64142 500.000
42.80366 434.000
42.96590 455.000
43.12815 504.000
43.29039 556.000
43.45263 486.000
43.61487 536.000
43.77711 541.000
43.93935 528.000
44.10159 458.000
44.26383 533.000
44.42607 611.000
44.58831 605.000
44.75055 604.000
44.91280 533.000
45.07504 485.000
45.23728 528.000
45.39952 546.000
45.56176 560.000
45.72400 519.000
45.88624 483.000
46.04848 489.000
46.21072 540.000
46.37296 590.000
46.53520 613.000
46.69744 537.000
46.85969 479.000
47.02193 469.000
47.18417 460.000
47.34641 479.000
47.50865 508.000
47.67089 482.000
47.83313 496.000
47.99537 489.000
48.15761 488.000
48.31985 437.000
48.48209 453.000
48.64433 393.000
48.80658 460.000
48.96882 457.000
49.13106 451.000
49.29330 424.000
49.45554 401.000
49.61778 436.000
49.78002 400.000
49.94226 411.000
50.00310 406.000