Folder: python_study_group/Task01/nick/files/ESI_material_XRD/steady_state/crystal_size_analysis/Volumes_EtOAc

Note: Task01/nick/files/ESI_material_XRD/steady_state/crystal_size_analysis/Volumes_EtOAc/output_quant_size_all.txt
file_name	Rwp	chisq	wtpc_Form1	wtpc_Form1_esd	wtpc_Form2	wtpc_Form2_esd	CS_L_Form1	CS_L_Form1_esd	CS_L_Form2	CS_L_Form2_esd	use_(Y_or_N)	comments	
1930_RVR_10ul_mill_EtOAc.xy	      12.87	      4.182	       93.5	        1.4	        6.5	        1.4	61.989755	1.024454	10.005798	4.209539	Y	not_form2	
1929_RVR_20ul_mill_EtOAc.xy	      11.65	      3.882	       77.5	        0.6	       22.5	        0.6	63.783216	1.170575	64.587360	3.787075	Y           	
1928_RVR_30ul_mill_EtOAc.xy	      11.89	      3.952	        6.3	        1.0	       93.7	        1.0	11.627737	2.180355	65.889681	1.017674	Y	not_form1	
1940_RVR_40ul_mill_EtOAc.xy	      13.03	      4.390	       13.5	        0.5	       86.5	        0.5	57.010274	4.171525	80.196937	1.278084	Y           	
1965_RVR_50ul_mill_EtOAc_081020_2.xy	      12.87	      3.688	       10.6	        0.7	       89.4	        0.7	43.030486	4.982002	95.084415	1.905165	Y

Note: README.md
# Python Study Group 15

## Task 01: Recursively remove unwanted files from a directory

File: 1928_RVR_30ul_mill_EtOAc.xy
5.00155 866.000
5.16379 777.000
5.32603 729.000
5.48827 673.000
5.65051 646.000
5.81275 562.000
5.97499 598.000
6.13723 560.000
6.29947 659.000
6.46171 874.000
6.62395 527.000
6.78620 563.000
6.94844 500.000
7.11068 440.000
7.27292 438.000
7.43516 436.000
7.59740 426.000
7.75964 468.000
7.92188 449.000
8.08412 460.000
8.24636 558.000
8.40860 902.000
8.57084 2972.000
8.73309 2852.000
8.89533 749.000
9.05757 565.000
9.21981 629.000
9.38205 1388.000
9.54429 2687.000
9.70653 1192.000
9.86877 3884.000
10.03101 1086.000
10.19325 568.000
10.35549 501.000
10.51773 559.000
10.67998 506.000
10.84222 1105.000
11.00446 2211.000
11.16670 579.000
11.32894 416.000
11.49118 473.000
11.65342 417.000
11.81566 427.000
11.97790 372.000
12.14014 384.000
12.30238 455.000
12.46463 415.000
12.62687 417.000
12.78911 391.000
12.95135 562.000
13.11359 623.000
13.27583 941.000
13.43807 649.000
13.60031 1295.000
13.76255 2717.000
13.92479 1058.000
14.08703 566.000
14.24927 445.000
14.41152 480.000
14.57376 441.000
14.73600 564.000
14.89824 861.000
15.06048 545.000
15.22272 510.000
15.38496 580.000
15.54720 828.000
15.70944 1084.000
15.87168 949.000
16.03392 2855.000
16.19616 1821.000
16.35841 1324.000
16.52065 1574.000
16.68289 2954.000
16.84513 1166.000
17.00737 981.000
17.16961 1507.000
17.33185 4474.000
17.49409 1990.000
17.65633 3373.000
17.81857 7857.000
17.98081 1819.000
18.14305 2028.000
18.30530 5873.000
18.46754 5385.000
18.62978 1536.000
18.79202 2064.000
18.95426 3542.000
19.11650 1643.000
19.27874 1543.000
19.44098 2629.000
19.60322 2466.000
19.76546 3795.000
19.92770 3457.000
20.08995 4578.000
20.25219 2330.000
20.41443 2688.000
20.57667 3963.000
20.73891 2961.000
20.90115 1528.000
21.06339 1236.000
21.22563 1597.000
21.38787 2644.000
21.55011 3953.000
21.71235 5646.000
21.87459 1999.000
22.03684 1834.000
22.19908 2513.000
22.36132 1306.000
22.52356 1289.000
22.68580 1721.000
22.84804 1472.000
23.01028 1096.000
23.17252 1009.000
23.33476 1287.000
23.49700 1760.000
23.65924 1278.000
23.82148 1208.000
23.98373 1636.000
24.14597 1793.000
24.30821 1233.000
24.47045 1314.000
24.63269 1201.000
24.79493 1701.000
24.95717 1169.000
25.11941 1170.000
25.28165 2411.000
25.44389 2296.000
25.60613 1148.000
25.76837 1353.000
25.93062 1407.000
26.09286 1830.000
26.25510 1710.000
26.41734 1521.000
26.57958 1139.000
26.74182 841.000
26.90406 1152.000
27.06630 792.000
27.22854 736.000
27.39078 759.000
27.55302 833.000
27.71526 610.000
27.87751 660.000
28.03975 606.000
28.20199 635.000
28.36423 863.000
28.52647 1666.000
28.68871 1753.000
28.85095 1118.000
29.01319 638.000
29.17543 628.000
29.33767 644.000
29.49991 646.000
29.66216 931.000
29.82440 1485.000
29.98664 1303.000
30.14888 1201.000
30.31112 973.000
30.47336 698.000
30.63560 597.000
30.79784 689.000
30.96008 823.000
31.12232 666.000
31.28456 872.000
31.44680 1066.000
31.60905 1382.000
31.77129 1217.000
31.93353 939.000
32.09577 959.000
32.25801 728.000
32.42025 744.000
32.58249 607.000
32.74473 627.000
32.90697 562.000
33.06921 720.000
33.23145 685.000
33.39369 670.000
33.55594 667.000
33.71818 772.000
33.88042 611.000
34.04266 550.000
34.20490 537.000
34.36714 492.000
34.52938 540.000
34.69162 572.000
34.85386 713.000
35.01610 857.000
35.17834 799.000
35.34058 785.000
35.50283 607.000
35.66507 553.000
35.82731 587.000
35.98955 718.000
36.15179 914.000
36.31403 962.000
36.47627 703.000
36.63851 588.000
36.80075 589.000
36.96299 486.000
37.12523 566.000
37.28748 701.000
37.44972 591.000
37.61196 525.000
37.77420 520.000
37.93644 628.000
38.09868 592.000
38.26092 667.000
38.42316 680.000
38.58540 630.000
38.74764 614.000
38.90988 625.000
39.07212 786.000
39.23437 643.000
39.39661 602.000
39.55885 575.000
39.72109 601.000
39.88333 581.000
40.04557 602.000
40.20781 662.000
40.37005 701.000
40.53229 863.000
40.69453 783.000
40.85677 584.000
41.01901 581.000
41.18126 597.000
41.34350 561.000
41.50574 491.000
41.66798 500.000
41.83022 505.000
41.99246 448.000
42.15470 471.000
42.31694 404.000
42.47918 578.000
42.64142 587.000
42.80366 554.000
42.96590 528.000
43.12815 559.000
43.29039 741.000
43.45263 613.000
43.61487 579.000
43.77711 623.000
43.93935 575.000
44.10159 550.000
44.26383 621.000
44.42607 683.000
44.58831 656.000
44.75055 677.000
44.91280 633.000
45.07504 605.000
45.23728 544.000
45.39952 581.000
45.56176 598.000
45.72400 584.000
45.88624 527.000
46.04848 541.000
46.21072 564.000
46.37296 578.000
46.53520 607.000
46.69744 620.000
46.85969 560.000
47.02193 531.000
47.18417 503.000
47.34641 550.000
47.50865 545.000
47.67089 514.000
47.83313 505.000
47.99537 596.000
48.15761 510.000
48.31985 531.000
48.48209 506.000
48.64433 526.000
48.80658 491.000
48.96882 512.000
49.13106 510.000
49.29330 494.000
49.45554 465.000
49.61778 456.000
49.78002 475.000
49.94226 439.000
50.00310 450.000

File: 1929_RVR_20ul_mill_EtOAc.xy
5.00155 923.000
5.16379 803.000
5.32603 790.000
5.48827 754.000
5.65051 649.000
5.81275 671.000
5.97499 575.000
6.13723 600.000
6.29947 583.000
6.46171 771.000
6.62395 1388.000
6.78620 5173.000
6.94844 1440.000
7.11068 671.000
7.27292 498.000
7.43516 484.000
7.59740 458.000
7.75964 509.000
7.92188 518.000
8.08412 735.000
8.24636 2057.000
8.40860 5053.000
8.57084 1389.000
8.73309 940.000
8.89533 523.000
9.05757 507.000
9.21981 495.000
9.38205 699.000
9.54429 772.000
9.70653 589.000
9.86877 1049.000
10.03101 545.000
10.19325 428.000
10.35549 513.000
10.51773 979.000
10.67998 654.000
10.84222 600.000
11.00446 671.000
11.16670 402.000
11.32894 409.000
11.49118 416.000
11.65342 390.000
11.81566 377.000
11.97790 374.000
12.14014 392.000
12.30238 406.000
12.46463 391.000
12.62687 477.000
12.78911 404.000
12.95135 459.000
13.11359 639.000
13.27583 959.000
13.43807 1056.000
13.60031 1549.000
13.76255 1051.000
13.92479 503.000
14.08703 495.000
14.24927 455.000
14.41152 524.000
14.57376 1068.000
14.73600 1630.000
14.89824 1407.000
15.06048 589.000
15.22272 491.000
15.38496 522.000
15.54720 555.000
15.70944 593.000
15.87168 621.000
16.03392 1158.000
16.19616 1144.000
16.35841 3153.000
16.52065 1793.000
16.68289 2379.000
16.84513 2392.000
17.00737 2365.000
17.16961 3968.000
17.33185 1815.000
17.49409 1038.000
17.65633 1377.000
17.81857 2357.000
17.98081 3064.000
18.14305 6327.000
18.30530 2763.000
18.46754 2007.000
18.62978 2668.000
18.79202 2863.000
18.95426 1964.000
19.11650 1490.000
19.27874 1345.000
19.44098 2964.000
19.60322 3084.000
19.76546 2520.000
19.92770 4295.000
20.08995 2874.000
20.25219 3148.000
20.41443 3279.000
20.57667 1812.000
20.73891 1332.000
20.90115 1162.000
21.06339 1384.000
21.22563 2486.000
21.38787 6628.000
21.55011 9804.000
21.71235 6511.000
21.87459 1822.000
22.03684 1274.000
22.19908 1231.000
22.36132 1220.000
22.52356 1507.000
22.68580 1327.000
22.84804 1473.000
23.01028 1459.000
23.17252 1075.000
23.33476 1502.000
23.49700 3095.000
23.65924 2231.000
23.82148 1532.000
23.98373 1166.000
24.14597 1119.000
24.30821 1775.000
24.47045 1886.000
24.63269 1141.000
24.79493 1257.000
24.95717 1014.000
25.11941 1561.000
25.28165 1885.000
25.44389 1590.000
25.60613 1055.000
25.76837 915.000
25.93062 1367.000
26.09286 1865.000
26.25510 1302.000
26.41734 1398.000
26.57958 1605.000
26.74182 1239.000
26.90406 1602.000
27.06630 1488.000
27.22854 1220.000
27.39078 1202.000
27.55302 1225.000
27.71526 673.000
27.87751 542.000
28.03975 628.000
28.20199 674.000
28.36423 1003.000
28.52647 1322.000
28.68871 1081.000
28.85095 943.000
29.01319 1035.000
29.17543 1022.000
29.33767 1076.000
29.49991 889.000
29.66216 1057.000
29.82440 1191.000
29.98664 1078.000
30.14888 916.000
30.31112 886.000
30.47336 818.000
30.63560 615.000
30.79784 558.000
30.96008 658.000
31.12232 834.000
31.28456 757.000
31.44680 641.000
31.60905 743.000
31.77129 772.000
31.93353 822.000
32.09577 763.000
32.25801 706.000
32.42025 666.000
32.58249 574.000
32.74473 605.000
32.90697 588.000
33.06921 674.000
33.23145 813.000
33.39369 801.000
33.55594 640.000
33.71818 553.000
33.88042 613.000
34.04266 658.000
34.20490 677.000
34.36714 736.000
34.52938 1097.000
34.69162 985.000
34.85386 874.000
35.01610 939.000
35.17834 697.000
35.34058 676.000
35.50283 614.000
35.66507 622.000
35.82731 552.000
35.98955 596.000
36.15179 673.000
36.31403 685.000
36.47627 745.000
36.63851 786.000
36.80075 799.000
36.96299 699.000
37.12523 710.000
37.28748 664.000
37.44972 650.000
37.61196 597.000
37.77420 619.000
37.93644 759.000
38.09868 760.000
38.26092 614.000
38.42316 628.000
38.58540 587.000
38.74764 557.000
38.90988 589.000
39.07212 584.000
39.23437 606.000
39.39661 667.000
39.55885 677.000
39.72109 722.000
39.88333 679.000
40.04557 695.000
40.20781 832.000
40.37005 799.000
40.53229 751.000
40.69453 635.000
40.85677 595.000
41.01901 572.000
41.18126 677.000
41.34350 676.000
41.50574 691.000
41.66798 716.000
41.83022 714.000
41.99246 553.000
42.15470 532.000
42.31694 505.000
42.47918 502.000
42.64142 543.000
42.80366 525.000
42.96590 534.000
43.12815 607.000
43.29039 641.000
43.45263 622.000
43.61487 684.000
43.77711 651.000
43.93935 719.000
44.10159 656.000
44.26383 597.000
44.42607 614.000
44.58831 535.000
44.75055 606.000
44.91280 563.000
45.07504 531.000
45.23728 509.000
45.39952 539.000
45.56176 570.000
45.72400 546.000
45.88624 549.000
46.04848 580.000
46.21072 535.000
46.37296 609.000
46.53520 580.000
46.69744 599.000
46.85969 482.000
47.02193 535.000
47.18417 566.000
47.34641 615.000
47.50865 587.000
47.67089 532.000
47.83313 587.000
47.99537 560.000
48.15761 487.000
48.31985 477.000
48.48209 463.000
48.64433 498.000
48.80658 430.000
48.96882 446.000
49.13106 495.000
49.29330 473.000
49.45554 520.000
49.61778 506.000
49.78002 511.000
49.94226 500.000
50.00310 469.000

File: 1930_RVR_10ul_mill_EtOAc.xy
5.00155 900.000
5.16379 782.000
5.32603 733.000
5.48827 708.000
5.65051 672.000
5.81275 639.000
5.97499 558.000
6.13723 613.000
6.29947 643.000
6.46171 714.000
6.62395 1693.000
6.78620 6062.000
6.94844 1558.000
7.11068 669.000
7.27292 579.000
7.43516 521.000
7.59740 488.000
7.75964 496.000
7.92188 553.000
8.08412 811.000
8.24636 2762.000
8.40860 5167.000
8.57084 911.000
8.73309 642.000
8.89533 512.000
9.05757 459.000
9.21981 482.000
9.38205 475.000
9.54429 446.000
9.70653 453.000
9.86877 444.000
10.03101 401.000
10.19325 434.000
10.35549 494.000
10.51773 1070.000
10.67998 633.000
10.84222 432.000
11.00446 433.000
11.16670 405.000
11.32894 371.000
11.49118 398.000
11.65342 370.000
11.81566 380.000
11.97790 391.000
12.14014 382.000
12.30238 381.000
12.46463 364.000
12.62687 399.000
12.78911 409.000
12.95135 413.000
13.11359 735.000
13.27583 874.000
13.43807 1108.000
13.60031 1455.000
13.76255 597.000
13.92479 488.000
14.08703 459.000
14.24927 466.000
14.41152 542.000
14.57376 1257.000
14.73600 1780.000
14.89824 1461.000
15.06048 558.000
15.22272 519.000
15.38496 481.000
15.54720 524.000
15.70944 457.000
15.87168 524.000
16.03392 605.000
16.19616 1058.000
16.35841 3211.000
16.52065 1867.000
16.68289 2191.000
16.84513 2377.000
17.00737 2570.000
17.16961 4107.000
17.33185 1148.000
17.49409 852.000
17.65633 843.000
17.81857 1169.000
17.98081 3334.000
18.14305 6489.000
18.30530 1636.000
18.46754 1330.000
18.62978 2852.000
18.79202 2749.000
18.95426 1606.000
19.11650 1343.000
19.27874 1199.000
19.44098 2908.000
19.60322 2835.000
19.76546 2211.000
19.92770 4277.000
20.08995 2483.000
20.25219 3192.000
20.41443 3155.000
20.57667 1161.000
20.73891 960.000
20.90115 1066.000
21.06339 1423.000
21.22563 2738.000
21.38787 7123.000
21.55011 10253.000
21.71235 6180.000
21.87459 1685.000
22.03684 1060.000
22.19908 961.000
22.36132 1154.000
22.52356 1544.000
22.68580 1142.000
22.84804 1474.000
23.01028 1427.000
23.17252 1024.000
23.33476 1561.000
23.49700 3011.000
23.65924 2206.000
23.82148 1421.000
23.98373 1049.000
24.14597 1049.000
24.30821 1773.000
24.47045 1728.000
24.63269 1095.000
24.79493 1135.000
24.95717 942.000
25.11941 1451.000
25.28165 1612.000
25.44389 1425.000
25.60613 1011.000
25.76837 883.000
25.93062 1362.000
26.09286 1662.000
26.25510 1206.000
26.41734 1267.000
26.57958 1681.000
26.74182 1317.000
26.90406 1641.000
27.06630 1513.000
27.22854 1271.000
27.39078 1310.000
27.55302 1129.000
27.71526 661.000
27.87751 622.000
28.03975 614.000
28.20199 717.000
28.36423 945.000
28.52647 1163.000
28.68871 902.000
28.85095 803.000
29.01319 1017.000
29.17543 952.000
29.33767 969.000
29.49991 887.000
29.66216 975.000
29.82440 1042.000
29.98664 967.000
30.14888 832.000
30.31112 773.000
30.47336 807.000
30.63560 582.000
30.79784 558.000
30.96008 605.000
31.12232 679.000
31.28456 648.000
31.44680 561.000
31.60905 611.000
31.77129 699.000
31.93353 688.000
32.09577 653.000
32.25801 589.000
32.42025 556.000
32.58249 515.000
32.74473 569.000
32.90697 637.000
33.06921 657.000
33.23145 706.000
33.39369 722.000
33.55594 562.000
33.71818 579.000
33.88042 564.000
34.04266 626.000
34.20490 686.000
34.36714 821.000
34.52938 1112.000
34.69162 1016.000
34.85386 837.000
35.01610 828.000
35.17834 722.000
35.34058 598.000
35.50283 650.000
35.66507 574.000
35.82731 517.000
35.98955 512.000
36.15179 550.000
36.31403 611.000
36.47627 689.000
36.63851 785.000
36.80075 890.000
36.96299 729.000
37.12523 676.000
37.28748 583.000
37.44972 528.000
37.61196 576.000
37.77420 633.000
37.93644 715.000
38.09868 684.000
38.26092 530.000
38.42316 625.000
38.58540 554.000
38.74764 477.000
38.90988 504.000
39.07212 545.000
39.23437 591.000
39.39661 590.000
39.55885 616.000
39.72109 619.000
39.88333 631.000
40.04557 740.000
40.20781 787.000
40.37005 769.000
40.53229 626.000
40.69453 581.000
40.85677 538.000
41.01901 603.000
41.18126 565.000
41.34350 629.000
41.50574 703.000
41.66798 714.000
41.83022 681.000
41.99246 525.000
42.15470 480.000
42.31694 505.000
42.47918 496.000
42.64142 439.000
42.80366 501.000
42.96590 484.000
43.12815 546.000
43.29039 630.000
43.45263 658.000
43.61487 591.000
43.77711 639.000
43.93935 670.000
44.10159 667.000
44.26383 555.000
44.42607 516.000
44.58831 499.000
44.75055 561.000
44.91280 486.000
45.07504 521.000
45.23728 483.000
45.39952 478.000
45.56176 535.000
45.72400 547.000
45.88624 558.000
46.04848 487.000
46.21072 561.000
46.37296 560.000
46.53520 549.000
46.69744 551.000
46.85969 535.000
47.02193 503.000
47.18417 510.000
47.34641 621.000
47.50865 573.000
47.67089 542.000
47.83313 578.000
47.99537 520.000
48.15761 466.000
48.31985 464.000
48.48209 425.000
48.64433 456.000
48.80658 451.000
48.96882 406.000
49.13106 421.000
49.29330 408.000
49.45554 478.000
49.61778 422.000
49.78002 445.000
49.94226 455.000
50.00310 503.000

File: 1940_RVR_40ul_mill_EtOAc.xy
5.00155 800.000
5.16379 711.000
5.32603 736.000
5.48827 632.000
5.65051 606.000
5.81275 624.000
5.97499 544.000
6.13723 546.000
6.29947 665.000
6.46171 898.000
6.62395 638.000
6.78620 1397.000
6.94844 647.000
7.11068 455.000
7.27292 452.000
7.43516 374.000
7.59740 381.000
7.75964 403.000
7.92188 416.000
8.08412 453.000
8.24636 716.000
8.40860 1845.000
8.57084 3499.000
8.73309 2652.000
8.89533 635.000
9.05757 572.000
9.21981 614.000
9.38205 1458.000
9.54429 2651.000
9.70653 1214.000
9.86877 4215.000
10.03101 874.000
10.19325 532.000
10.35549 572.000
10.51773 691.000
10.67998 541.000
10.84222 1117.000
11.00446 2035.000
11.16670 507.000
11.32894 417.000
11.49118 402.000
11.65342 377.000
11.81566 391.000
11.97790 387.000
12.14014 378.000
12.30238 452.000
12.46463 375.000
12.62687 377.000
12.78911 368.000
12.95135 553.000
13.11359 592.000
13.27583 1034.000
13.43807 698.000
13.60031 1595.000
13.76255 2651.000
13.92479 880.000
14.08703 501.000
14.24927 467.000
14.41152 438.000
14.57376 494.000
14.73600 746.000
14.89824 1037.000
15.06048 477.000
15.22272 471.000
15.38496 504.000
15.54720 810.000
15.70944 978.000
15.87168 884.000
16.03392 3155.000
16.19616 1590.000
16.35841 1685.000
16.52065 1647.000
16.68289 3605.000
16.84513 1389.000
17.00737 1162.000
17.16961 1852.000
17.33185 4881.000
17.49409 1552.000
17.65633 2996.000
17.81857 6525.000
17.98081 1994.000
18.14305 2702.000
18.30530 5966.000
18.46754 4408.000
18.62978 1558.000
18.79202 2208.000
18.95426 3446.000
19.11650 1522.000
19.27874 1442.000
19.44098 2903.000
19.60322 2667.000
19.76546 3781.000
19.92770 3712.000
20.08995 4668.000
20.25219 2387.000
20.41443 2541.000
20.57667 3891.000
20.73891 2310.000
20.90115 1502.000
21.06339 1175.000
21.22563 1729.000
21.38787 3426.000
21.55011 5224.000
21.71235 6473.000
21.87459 1729.000
22.03684 1793.000
22.19908 2636.000
22.36132 1152.000
22.52356 1366.000
22.68580 1770.000
22.84804 1398.000
23.01028 1150.000
23.17252 990.000
23.33476 1390.000
23.49700 2042.000
23.65924 1475.000
23.82148 1275.000
23.98373 1711.000
24.14597 1676.000
24.30821 1308.000
24.47045 1480.000
24.63269 1219.000
24.79493 1706.000
24.95717 1040.000
25.11941 1158.000
25.28165 2722.000
25.44389 2154.000
25.60613 1022.000
25.76837 1452.000
25.93062 1348.000
26.09286 2100.000
26.25510 1606.000
26.41734 1528.000
26.57958 1215.000
26.74182 893.000
26.90406 1210.000
27.06630 911.000
27.22854 770.000
27.39078 841.000
27.55302 929.000
27.71526 612.000
27.87751 590.000
28.03975 580.000
28.20199 603.000
28.36423 847.000
28.52647 1853.000
28.68871 1640.000
28.85095 993.000
29.01319 706.000
29.17543 739.000
29.33767 673.000
29.49991 646.000
29.66216 901.000
29.82440 1483.000
29.98664 1356.000
30.14888 1291.000
30.31112 909.000
30.47336 765.000
30.63560 598.000
30.79784 681.000
30.96008 774.000
31.12232 731.000
31.28456 923.000
31.44680 978.000
31.60905 1424.000
31.77129 1155.000
31.93353 966.000
32.09577 970.000
32.25801 667.000
32.42025 737.000
32.58249 584.000
32.74473 581.000
32.90697 580.000
33.06921 750.000
33.23145 748.000
33.39369 664.000
33.55594 738.000
33.71818 735.000
33.88042 607.000
34.04266 546.000
34.20490 582.000
34.36714 506.000
34.52938 578.000
34.69162 661.000
34.85386 778.000
35.01610 978.000
35.17834 905.000
35.34058 842.000
35.50283 609.000
35.66507 515.000
35.82731 554.000
35.98955 711.000
36.15179 917.000
36.31403 924.000
36.47627 724.000
36.63851 675.000
36.80075 603.000
36.96299 584.000
37.12523 639.000
37.28748 708.000
37.44972 581.000
37.61196 495.000
37.77420 590.000
37.93644 683.000
38.09868 615.000
38.26092 708.000
38.42316 774.000
38.58540 665.000
38.74764 612.000
38.90988 680.000
39.07212 828.000
39.23437 642.000
39.39661 591.000
39.55885 617.000
39.72109 584.000
39.88333 595.000
40.04557 574.000
40.20781 625.000
40.37005 755.000
40.53229 898.000
40.69453 763.000
40.85677 556.000
41.01901 535.000
41.18126 595.000
41.34350 586.000
41.50574 523.000
41.66798 524.000
41.83022 537.000
41.99246 495.000
42.15470 427.000
42.31694 486.000
42.47918 559.000
42.64142 578.000
42.80366 524.000
42.96590 480.000
43.12815 585.000
43.29039 614.000
43.45263 568.000
43.61487 643.000
43.77711 659.000
43.93935 567.000
44.10159 516.000
44.26383 617.000
44.42607 683.000
44.58831 709.000
44.75055 658.000
44.91280 661.000
45.07504 597.000
45.23728 578.000
45.39952 620.000
45.56176 641.000
45.72400 548.000
45.88624 592.000
46.04848 523.000
46.21072 608.000
46.37296 597.000
46.53520 628.000
46.69744 613.000
46.85969 504.000
47.02193 547.000
47.18417 533.000
47.34641 501.000
47.50865 563.000
47.67089 520.000
47.83313 531.000
47.99537 582.000
48.15761 515.000
48.31985 532.000
48.48209 493.000
48.64433 476.000
48.80658 481.000
48.96882 547.000
49.13106 481.000
49.29330 483.000
49.45554 505.000
49.61778 462.000
49.78002 471.000
49.94226 491.000
50.00310 477.000

File: 1965_RVR_50ul_mill_EtOAc_081020_2.xy
5.00155 800.000
5.16379 758.000
5.32603 667.000
5.48827 641.000
5.65051 580.000
5.81275 543.000
5.97499 520.000
6.13723 421.000
6.29947 508.000
6.46171 581.000
6.62395 497.000
6.78620 722.000
6.94844 407.000
7.11068 348.000
7.27292 300.000
7.43516 303.000
7.59740 324.000
7.75964 331.000
7.92188 326.000
8.08412 319.000
8.24636 480.000
8.40860 872.000
8.57084 2922.000
8.73309 861.000
8.89533 378.000
9.05757 380.000
9.21981 413.000
9.38205 1153.000
9.54429 1080.000
9.70653 787.000
9.86877 2711.000
10.03101 464.000
10.19325 326.000
10.35549 396.000
10.51773 376.000
10.67998 355.000
10.84222 868.000
11.00446 772.000
11.16670 303.000
11.32894 316.000
11.49118 265.000
11.65342 268.000
11.81566 250.000
11.97790 294.000
12.14014 327.000
12.30238 317.000
12.46463 278.000
12.62687 272.000
12.78911 267.000
12.95135 391.000
13.11359 410.000
13.27583 658.000
13.43807 475.000
13.60031 1185.000
13.76255 1862.000
13.92479 455.000
14.08703 326.000
14.24927 312.000
14.41152 318.000
14.57376 346.000
14.73600 420.000
14.89824 680.000
15.06048 307.000
15.22272 337.000
15.38496 346.000
15.54720 683.000
15.70944 623.000
15.87168 703.000
16.03392 2913.000
16.19616 769.000
16.35841 1222.000
16.52065 1205.000
16.68289 2614.000
16.84513 671.000
17.00737 691.000
17.16961 1362.000
17.33185 3750.000
17.49409 977.000
17.65633 3180.000
17.81857 2738.000
17.98081 1326.000
18.14305 1748.000
18.30530 5092.000
18.46754 1873.000
18.62978 971.000
18.79202 1800.000
18.95426 2056.000
19.11650 805.000
19.27874 1155.000
19.44098 2357.000
19.60322 1532.000
19.76546 2677.000
19.92770 3008.000
20.08995 2908.000
20.25219 1614.000
20.41443 1622.000
20.57667 3359.000
20.73891 1093.000
20.90115 1048.000
21.06339 814.000
21.22563 1312.000
21.38787 2801.000
21.55011 3584.000
21.71235 4298.000
21.87459 1067.000
22.03684 1403.000
22.19908 2158.000
22.36132 774.000
22.52356 988.000
22.68580 1436.000
22.84804 887.000
23.01028 821.000
23.17252 689.000
23.33476 1092.000
23.49700 1290.000
23.65924 1090.000
23.82148 928.000
23.98373 1183.000
24.14597 1354.000
24.30821 920.000
24.47045 905.000
24.63269 956.000
24.79493 1139.000
24.95717 727.000
25.11941 1002.000
25.28165 2335.000
25.44389 1415.000
25.60613 763.000
25.76837 1256.000
25.93062 1017.000
26.09286 1542.000
26.25510 1163.000
26.41734 1176.000
26.57958 764.000
26.74182 663.000
26.90406 1023.000
27.06630 597.000
27.22854 572.000
27.39078 634.000
27.55302 630.000
27.71526 432.000
27.87751 447.000
28.03975 433.000
28.20199 478.000
28.36423 797.000
28.52647 1429.000
28.68871 1159.000
28.85095 653.000
29.01319 510.000
29.17543 553.000
29.33767 477.000
29.49991 529.000
29.66216 885.000
29.82440 1152.000
29.98664 988.000
30.14888 913.000
30.31112 669.000
30.47336 463.000
30.63560 496.000
30.79784 519.000
30.96008 563.000
31.12232 548.000
31.28456 732.000
31.44680 804.000
31.60905 1147.000
31.77129 888.000
31.93353 752.000
32.09577 684.000
32.25801 502.000
32.42025 558.000
32.58249 473.000
32.74473 415.000
32.90697 430.000
33.06921 655.000
33.23145 537.000
33.39369 541.000
33.55594 600.000
33.71818 579.000
33.88042 474.000
34.04266 412.000
34.20490 415.000
34.36714 392.000
34.52938 442.000
34.69162 490.000
34.85386 592.000
35.01610 792.000
35.17834 674.000
35.34058 631.000
35.50283 414.000
35.66507 408.000
35.82731 460.000
35.98955 547.000
36.15179 750.000
36.31403 760.000
36.47627 485.000
36.63851 510.000
36.80075 466.000
36.96299 388.000
37.12523 520.000
37.28748 569.000
37.44972 433.000
37.61196 408.000
37.77420 428.000
37.93644 519.000
38.09868 510.000
38.26092 561.000
38.42316 599.000
38.58540 455.000
38.74764 540.000
38.90988 579.000
39.07212 651.000
39.23437 461.000
39.39661 456.000
39.55885 550.000
39.72109 464.000
39.88333 454.000
40.04557 510.000
40.20781 517.000
40.37005 616.000
40.53229 813.000
40.69453 564.000
40.85677 462.000
41.01901 462.000
41.18126 454.000
41.34350 433.000
41.50574 412.000
41.66798 406.000
41.83022 411.000
41.99246 367.000
42.15470 396.000
42.31694 391.000
42.47918 487.000
42.64142 461.000
42.80366 412.000
42.96590 444.000
43.12815 511.000
43.29039 467.000
43.45263 478.000
43.61487 491.000
43.77711 504.000
43.93935 455.000
44.10159 430.000
44.26383 488.000
44.42607 543.000
44.58831 572.000
44.75055 512.000
44.91280 443.000
45.07504 441.000
45.23728 473.000
45.39952 453.000
45.56176 506.000
45.72400 405.000
45.88624 434.000
46.04848 479.000
46.21072 465.000
46.37296 501.000
46.53520 523.000
46.69744 490.000
46.85969 413.000
47.02193 436.000
47.18417 410.000
47.34641 459.000
47.50865 447.000
47.67089 443.000
47.83313 440.000
47.99537 442.000
48.15761 422.000
48.31985 423.000
48.48209 415.000
48.64433 435.000
48.80658 404.000
48.96882 394.000
49.13106 429.000
49.29330 392.000
49.45554 377.000
49.61778 371.000
49.78002 428.000
49.94226 356.000
50.00310 401.000