Folder: python_study_group/Task01/nick/files/ESI_material_XRD/steady_state/crystal_size_analysis/Volumes_Water

Note: Task01/nick/files/ESI_material_XRD/steady_state/crystal_size_analysis/Volumes_Water/output_quant_size_all.txt
file_name	Rwp	chisq	wtpc_Form1	wtpc_Form1_esd	wtpc_Form2	wtpc_Form2_esd	CS_L_Form1	CS_L_Form1_esd	CS_L_Form2	CS_L_Form2_esd	use_(Y_or_N)	comments	
1489_RVR_neatgrind.xy	       6.90	      2.127	       30.4	        1.5	       69.6	        1.5	36.670268	2.944018	10.023193	0.760812	N
1802_RVR_mill_water_1.0.xy	      13.23	      3.710	       88.2	        1.1	       11.8	        1.1	65.694366	0.973523	10.023193	1.952165	Y	not_Form2
2014_RVR_10ul_Water.xy	      10.71	      3.600	       90.4	        1.3	        9.6	        1.3	43.741303	0.620152	10.023193	2.475129	Y	not_Form2

Note: README.md
# Python Study Group 15

## Task 01: Recursively remove unwanted files from a directory

File: 1489_RVR_neatgrind.xy
4.00155 2407.000
4.12323 1988.000
4.24491 1725.000
4.36659 1571.000
4.48827 1457.000
4.60995 1295.000
4.73163 1170.000
4.85331 1248.000
4.97499 1083.000
5.09667 1137.000
5.21835 1015.000
5.34003 1008.000
5.46171 917.000
5.58339 963.000
5.70507 857.000
5.82676 858.000
5.94844 909.000
6.07012 800.000
6.19180 826.000
6.31348 903.000
6.43516 868.000
6.55684 908.000
6.67852 1068.000
6.80020 1324.000
6.92188 878.000
7.04356 816.000
7.16524 804.000
7.28692 767.000
7.40860 737.000
7.53028 818.000
7.65197 765.000
7.77365 770.000
7.89533 752.000
8.01701 798.000
8.13869 817.000
8.26037 995.000
8.38205 1267.000
8.50373 855.000
8.62541 760.000
8.74709 757.000
8.86877 664.000
8.99045 691.000
9.11213 688.000
9.23381 694.000
9.35549 707.000
9.47717 686.000
9.59886 657.000
9.72054 662.000
9.84222 666.000
9.96390 647.000
10.08558 657.000
10.20726 662.000
10.32894 652.000
10.45062 675.000
10.57230 656.000
10.69398 631.000
10.81566 614.000
10.93734 664.000
11.05902 676.000
11.18070 662.000
11.30238 648.000
11.42406 664.000
11.54575 637.000
11.66743 617.000
11.78911 629.000
11.91079 645.000
12.03247 640.000
12.15415 670.000
12.27583 673.000
12.39751 673.000
12.51919 664.000
12.64087 708.000
12.76255 723.000
12.88423 712.000
13.00591 760.000
13.12759 728.000
13.24927 735.000
13.37096 856.000
13.49264 820.000
13.61432 842.000
13.73600 864.000
13.85768 774.000
13.97936 837.000
14.10104 790.000
14.22272 816.000
14.34440 871.000
14.46608 825.000
14.58776 974.000
14.70944 963.000
14.83112 988.000
14.95280 990.000
15.07448 981.000
15.19616 939.000
15.31785 971.000
15.43953 992.000
15.56121 988.000
15.68289 1028.000
15.80457 989.000
15.92625 1074.000
16.04793 1157.000
16.16961 1155.000
16.29129 1304.000
16.41297 1443.000
16.53465 1284.000
16.65633 1431.000
16.77801 1473.000
16.89969 1466.000
17.02137 1605.000
17.14305 1619.000
17.26474 1465.000
17.38642 1520.000
17.50810 1437.000
17.62978 1463.000
17.75146 1572.000
17.87314 1627.000
17.99482 2028.000
18.11650 2199.000
18.23818 1724.000
18.35986 1698.000
18.48154 1720.000
18.60322 1846.000
18.72490 1922.000
18.84658 1799.000
18.96826 1848.000
19.08995 1798.000
19.21163 1810.000
19.33331 1802.000
19.45499 1981.000
19.57667 1968.000
19.69835 1900.000
19.82003 2063.000
19.94171 2118.000
20.06339 1879.000
20.18507 1941.000
20.30675 2040.000
20.42843 1876.000
20.55011 1686.000
20.67179 1595.000
20.79347 1624.000
20.91515 1561.000
21.03684 1637.000
21.15852 1715.000
21.28020 1967.000
21.40188 2318.000
21.52356 2621.000
21.64524 2251.000
21.76692 1645.000
21.88860 1527.000
22.01028 1510.000
22.13196 1370.000
22.25364 1361.000
22.37532 1310.000
22.49700 1399.000
22.61868 1399.000
22.74036 1348.000
22.86204 1323.000
22.98373 1232.000
23.10541 1171.000
23.22709 1239.000
23.34877 1366.000
23.47045 1483.000
23.59213 1388.000
23.71381 1301.000
23.83549 1164.000
23.95717 1144.000
24.07885 1059.000
24.20053 1179.000
24.32221 1173.000
24.44389 1160.000
24.56557 1027.000
24.68725 1115.000
24.80893 1021.000
24.93062 998.000
25.05230 998.000
25.17398 1051.000
25.29566 1009.000
25.41734 964.000
25.53902 1053.000
25.66070 948.000
25.78238 962.000
25.90406 989.000
26.02574 1041.000
26.14742 992.000
26.26910 992.000
26.39078 974.000
26.51246 952.000
26.63414 953.000
26.75583 901.000
26.87751 929.000
26.99919 948.000
27.12087 914.000
27.24255 883.000
27.36423 866.000
27.48591 904.000
27.60759 838.000
27.72927 766.000
27.85095 734.000
27.97263 769.000
28.09431 711.000
28.21599 764.000
28.33767 738.000
28.45935 756.000
28.58103 783.000
28.70272 739.000
28.82440 728.000
28.94608 766.000
29.06776 741.000
29.18944 707.000
29.31112 711.000
29.43280 723.000
29.55448 690.000
29.67616 735.000
29.79784 678.000
29.91952 688.000
30.04120 704.000
30.16288 649.000
30.28456 690.000
30.40624 666.000
30.52792 653.000
30.64961 617.000
30.77129 623.000
30.89297 570.000
31.01465 586.000
31.13633 645.000
31.25801 587.000
31.37969 581.000
31.50137 598.000
31.62305 580.000
31.74473 601.000
31.86641 611.000
31.98809 563.000
32.10977 595.000
32.23145 583.000
32.35313 568.000
32.47482 598.000
32.59650 558.000
32.71818 528.000
32.83986 556.000
32.96154 568.000
33.08322 553.000
33.20490 563.000
33.32658 532.000
33.44826 547.000
33.56994 550.000
33.69162 515.000
33.81330 583.000
33.93498 543.000
34.05666 525.000
34.17834 553.000
34.30002 539.000
34.42171 620.000
34.54339 598.000
34.66507 628.000
34.78675 600.000
34.90843 602.000
35.03011 530.000
35.15179 572.000
35.27347 561.000
35.39515 543.000
35.51683 517.000
35.63851 550.000
35.76019 526.000
35.88187 542.000
36.00355 539.000
36.12523 515.000
36.24691 505.000
36.36860 506.000
36.49028 517.000
36.61196 539.000
36.73364 536.000
36.85532 575.000
36.97700 522.000
37.09868 521.000
37.22036 496.000
37.34204 560.000
37.46372 491.000
37.58540 523.000
37.70708 500.000
37.82876 503.000
37.95044 561.000
38.07212 524.000
38.19381 510.000
38.31549 522.000
38.43717 524.000
38.55885 504.000
38.68053 511.000
38.80221 516.000
38.92389 512.000
39.04557 475.000
39.16725 502.000
39.28893 544.000
39.41061 528.000
39.53229 556.000
39.65397 533.000
39.77565 535.000
39.89733 499.000
39.99873 572.000

File: 1802_RVR_mill_water_1.0.xy
5.00155 870.000
5.20232 767.000
5.40309 679.000
5.60387 700.000
5.80464 567.000
6.00541 509.000
6.20618 508.000
6.40696 514.000
6.60773 920.000
6.80850 3851.000
7.00928 602.000
7.21005 367.000
7.41082 369.000
7.61160 368.000
7.81237 556.000
8.01314 409.000
8.21391 1193.000
8.41469 3284.000
8.61546 581.000
8.81623 351.000
9.01701 310.000
9.21778 328.000
9.41855 360.000
9.61933 333.000
9.82010 362.000
10.02087 336.000
10.22165 306.000
10.42242 480.000
10.62319 645.000
10.82396 388.000
11.02474 337.000
11.22551 340.000
11.42628 283.000
11.62706 320.000
11.82783 313.000
12.02860 301.000
12.22938 256.000
12.43015 278.000
12.63092 298.000
12.83170 288.000
13.03247 321.000
13.23324 685.000
13.43401 902.000
13.63479 884.000
13.83556 384.000
14.03633 329.000
14.23711 338.000
14.43788 446.000
14.63865 1562.000
14.83943 929.000
15.04020 526.000
15.24097 349.000
15.44174 366.000
15.64252 400.000
15.84329 434.000
16.04406 557.000
16.24484 1167.000
16.44561 2105.000
16.64638 1668.000
16.84716 2013.000
17.04793 3211.000
17.24870 1339.000
17.44948 719.000
17.65025 782.000
17.85102 1258.000
18.05179 5147.000
18.25257 1872.000
18.45334 1042.000
18.65411 2823.000
18.85489 1428.000
19.05566 1255.000
19.25643 845.000
19.45721 2689.000
19.65798 1747.000
19.85875 2868.000
20.05952 1984.000
20.26030 2966.000
20.46107 1569.000
20.66184 843.000
20.86262 772.000
21.06339 1197.000
21.26416 3075.000
21.46494 8001.000
21.66571 6599.000
21.86648 1373.000
22.06726 793.000
22.26803 822.000
22.46880 1270.000
22.66957 866.000
22.87035 1246.000
23.07112 979.000
23.27189 1036.000
23.47267 2568.000
23.67344 1795.000
23.87421 1097.000
24.07499 757.000
24.27576 1220.000
24.47653 1548.000
24.67731 933.000
24.87808 781.000
25.07885 1219.000
25.27962 1568.000
25.48040 1118.000
25.68117 662.000
25.88194 960.000
26.08272 1546.000
26.28349 1009.000
26.48426 1291.000
26.68504 1195.000
26.88581 1372.000
27.08658 1415.000
27.28735 1000.000
27.48813 1135.000
27.68890 642.000
27.88967 489.000
28.09045 497.000
28.29122 690.000
28.49199 1082.000
28.69277 848.000
28.89354 780.000
29.09431 1002.000
29.29509 802.000
29.49586 863.000
29.69663 877.000
29.89740 981.000
30.09818 855.000
30.29895 695.000
30.49972 738.000
30.70050 468.000
30.90127 500.000
31.10204 706.000
31.30282 622.000
31.50359 505.000
31.70436 609.000
31.90513 605.000
32.10591 642.000
32.30668 526.000
32.50745 480.000
32.70823 522.000
32.90900 575.000
33.10977 663.000
33.31055 710.000
33.51132 546.000
33.71209 509.000
33.91287 570.000
34.11364 681.000
34.31441 694.000
34.51518 1075.000
34.71596 905.000
34.91673 896.000
35.11750 647.000
35.31828 567.000
35.51905 574.000
35.71982 537.000
35.92060 467.000
36.12137 525.000
36.32214 583.000
36.52292 700.000
36.72369 772.000
36.92446 699.000
37.12523 669.000
37.32601 542.000
37.52678 523.000
37.72755 609.000
37.92833 652.000
38.12910 589.000
38.32987 492.000
38.53065 538.000
38.73142 511.000
38.93219 453.000
39.13296 482.000
39.33374 510.000
39.53451 596.000
39.73528 623.000
39.93606 538.000
40.13683 685.000
40.33760 715.000
40.53838 582.000
40.73915 500.000
40.93992 498.000
41.14070 492.000
41.34147 620.000
41.54224 614.000
41.74301 697.000
41.94379 539.000
42.14456 467.000
42.34533 453.000
42.54611 449.000
42.74688 437.000
42.94765 438.000
43.14843 502.000
43.34920 584.000
43.54997 584.000
43.75075 633.000
43.95152 698.000
44.15229 587.000
44.35306 467.000
44.55384 478.000
44.75461 485.000
44.95538 507.000
45.15616 493.000
45.35693 482.000
45.55770 477.000
45.75848 486.000
45.95925 461.000
46.16002 480.000
46.36079 460.000
46.56157 530.000
46.76234 519.000
46.96311 439.000
47.16389 477.000
47.36466 555.000
47.56543 508.000
47.76621 490.000
47.96698 468.000
48.16775 438.000
48.36853 444.000
48.56930 443.000
48.77007 385.000
48.97084 374.000
49.17162 405.000
49.37239 455.000
49.57316 469.000
49.77394 459.000
49.97471 422.000
50.17548 431.000
50.37626 512.000
50.57703 481.000
50.77780 418.000
50.97857 410.000
51.17935 457.000
51.38012 441.000
51.58089 393.000
51.78167 372.000
51.98244 384.000
52.18321 374.000
52.38399 404.000
52.58476 383.000
52.78553 394.000
52.98631 377.000
53.18708 384.000
53.38785 371.000
53.58862 365.000
53.78940 399.000
53.99017 372.000
54.19094 350.000
54.39172 357.000
54.59249 369.000
54.79326 382.000
54.99404 337.000
55.19481 341.000
55.39558 352.000
55.59636 389.000
55.79713 341.000
55.99790 407.000
56.19867 372.000
56.39945 370.000
56.60022 399.000
56.80099 376.000
57.00177 362.000
57.20254 395.000
57.40331 375.000
57.60409 384.000
57.80486 350.000
58.00563 354.000
58.20640 354.000
58.40718 339.000
58.60795 363.000
58.80872 353.000
59.00950 365.000
59.21027 385.000
59.41104 366.000
59.61182 326.000
59.81259 307.000
60.01336 309.000
60.21414 288.000
60.41491 340.000
60.61568 319.000
60.81645 292.000
60.99898 323.000

File: 2014_RVR_10ul_Water.xy
5.00155 991.000
5.16379 893.000
5.32603 760.000
5.48827 714.000
5.65051 683.000
5.81275 633.000
5.97499 577.000
6.13723 617.000
6.29947 683.000
6.46171 799.000
6.62395 1590.000
6.78620 4108.000
6.94844 2153.000
7.11068 814.000
7.27292 552.000
7.43516 584.000
7.59740 566.000
7.75964 538.000
7.92188 616.000
8.08412 926.000
8.24636 2107.000
8.40860 4064.000
8.57084 1405.000
8.73309 756.000
8.89533 634.000
9.05757 529.000
9.21981 532.000
9.38205 472.000
9.54429 482.000
9.70653 475.000
9.86877 504.000
10.03101 531.000
10.19325 498.000
10.35549 544.000
10.51773 914.000
10.67998 743.000
10.84222 561.000
11.00446 510.000
11.16670 441.000
11.32894 444.000
11.49118 496.000
11.65342 473.000
11.81566 434.000
11.97790 452.000
12.14014 457.000
12.30238 488.000
12.46463 470.000
12.62687 498.000
12.78911 481.000
12.95135 552.000
13.11359 774.000
13.27583 964.000
13.43807 1157.000
13.60031 1431.000
13.76255 800.000
13.92479 592.000
14.08703 543.000
14.24927 602.000
14.41152 626.000
14.57376 1163.000
14.73600 1853.000
14.89824 1398.000
15.06048 889.000
15.22272 674.000
15.38496 678.000
15.54720 661.000
15.70944 667.000
15.87168 698.000
16.03392 887.000
16.19616 1306.000
16.35841 2495.000
16.52065 2252.000
16.68289 2205.000
16.84513 2537.000
17.00737 2618.000
17.16961 4390.000
17.33185 1671.000
17.49409 1167.000
17.65633 1117.000
17.81857 1416.000
17.98081 2946.000
18.14305 6362.000
18.30530 2445.000
18.46754 1611.000
18.62978 2611.000
18.79202 3046.000
18.95426 1845.000
19.11650 1689.000
19.27874 1668.000
19.44098 2755.000
19.60322 3258.000
19.76546 2646.000
19.92770 3817.000
20.08995 3082.000
20.25219 3392.000
20.41443 3451.000
20.57667 1693.000
20.73891 1272.000
20.90115 1293.000
21.06339 1665.000
21.22563 2798.000
21.38787 6231.000
21.55011 9307.000
21.71235 6935.000
21.87459 2539.000
22.03684 1440.000
22.19908 1249.000
22.36132 1306.000
22.52356 1628.000
22.68580 1377.000
22.84804 1469.000
23.01028 1521.000
23.17252 1295.000
23.33476 1559.000
23.49700 2823.000
23.65924 2466.000
23.82148 1647.000
23.98373 1294.000
24.14597 1198.000
24.30821 1626.000
24.47045 1906.000
24.63269 1273.000
24.79493 1319.000
24.95717 1081.000
25.11941 1507.000
25.28165 1766.000
25.44389 1560.000
25.60613 1189.000
25.76837 1025.000
25.93062 1325.000
26.09286 1753.000
26.25510 1437.000
26.41734 1374.000
26.57958 1716.000
26.74182 1539.000
26.90406 1587.000
27.06630 1643.000
27.22854 1307.000
27.39078 1286.000
27.55302 1228.000
27.71526 819.000
27.87751 799.000
28.03975 710.000
28.20199 784.000
28.36423 1029.000
28.52647 1181.000
28.68871 1027.000
28.85095 931.000
29.01319 1038.000
29.17543 1087.000
29.33767 1018.000
29.49991 961.000
29.66216 1021.000
29.82440 1068.000
29.98664 1119.000
30.14888 928.000
30.31112 800.000
30.47336 894.000
30.63560 681.000
30.79784 652.000
30.96008 631.000
31.12232 780.000
31.28456 726.000
31.44680 682.000
31.60905 663.000
31.77129 818.000
31.93353 730.000
32.09577 731.000
32.25801 688.000
32.42025 629.000
32.58249 564.000
32.74473 650.000
32.90697 694.000
33.06921 702.000
33.23145 767.000
33.39369 820.000
33.55594 637.000
33.71818 644.000
33.88042 641.000
34.04266 678.000
34.20490 746.000
34.36714 869.000
34.52938 1042.000
34.69162 1082.000
34.85386 879.000
35.01610 887.000
35.17834 766.000
35.34058 646.000
35.50283 664.000
35.66507 653.000
35.82731 600.000
35.98955 561.000
36.15179 604.000
36.31403 675.000
36.47627 755.000
36.63851 884.000
36.80075 855.000
36.96299 802.000
37.12523 799.000
37.28748 665.000
37.44972 636.000
37.61196 651.000
37.77420 695.000
37.93644 740.000
38.09868 789.000
38.26092 646.000
38.42316 646.000
38.58540 615.000
38.74764 586.000
38.90988 579.000
39.07212 562.000
39.23437 600.000
39.39661 644.000
39.55885 670.000
39.72109 712.000
39.88333 685.000
40.04557 711.000
40.20781 771.000
40.37005 822.000
40.53229 717.000
40.69453 621.000
40.85677 638.000
41.01901 588.000
41.18126 614.000
41.34350 690.000
41.50574 719.000
41.66798 765.000
41.83022 787.000
41.99246 609.000
42.15470 571.000
42.31694 556.000
42.47918 526.000
42.64142 531.000
42.80366 529.000
42.96590 573.000
43.12815 597.000
43.29039 663.000
43.45263 626.000
43.61487 660.000
43.77711 709.000
43.93935 768.000
44.10159 718.000
44.26383 647.000
44.42607 560.000
44.58831 583.000
44.75055 571.000
44.91280 584.000
45.07504 615.000
45.23728 571.000
45.39952 569.000
45.56176 535.000
45.72400 644.000
45.88624 578.000
46.04848 555.000
46.21072 531.000
46.37296 531.000
46.53520 579.000
46.69744 603.000
46.85969 553.000
47.02193 615.000
47.18417 566.000
47.34641 623.000
47.50865 622.000
47.67089 566.000
47.83313 570.000
47.99537 503.000
48.15761 473.000
48.31985 519.000
48.48209 510.000
48.64433 472.000
48.80658 488.000
48.96882 509.000
49.13106 482.000
49.29330 454.000
49.45554 481.000
49.61778 476.000
49.78002 488.000
49.94226 491.000
50.00310 502.000