Folder: python_study_group/Task01/nick/files/ESI_material_XRD/steady_state/crystal_size_analysis/Volumes_IPA

Note: Task01/nick/files/ESI_material_XRD/steady_state/crystal_size_analysis/Volumes_IPA/output_quant_size_all.txt
file_name	Rwp	chisq	wtpc_Form1	wtpc_Form1_esd	wtpc_Form2	wtpc_Form2_esd	CS_L_Form1	CS_L_Form1_esd	CS_L_Form2	CS_L_Form2_esd	use_(Y_or_N)	comments	
RVR_IPA_10uL.xy	      11.97	      3.968	       88.6	        0.8	       11.4	        0.8	71.448757	1.551233	74.151328	10.500792	Y
RVR_IPA_20uL.xy	      11.70	      4.119	       59.3	        0.6	       40.7	        0.6	69.316418	1.833152	89.672646	3.564335	Y
RVR_IPA_30uL.xy	      14.07	      4.669	        7.8	        0.9	       92.2	        0.9	37.289417	6.622753	81.442264	1.576092	Y	not_Form1
RVR_IPA_40uL.xy	      14.20	      4.824	        2.0	        1.9	       98.0	        1.9	12.908918	10.609888	95.808173	1.801897	Y	 not_Form1
RVR_IPA_50uL.xy	      16.24	      4.480	       11.7	        1.2	       88.3	        1.2	10.011597	1.318898	108.716038	2.483191	Y	not_Form1

Note: README.md
# Python Study Group 15

## Task 01: Recursively remove unwanted files from a directory

File: RVR_IPA_10uL.xy
4.00155 2847.000
4.12323 2491.000
4.24491 2175.000
4.36659 1915.000
4.48827 1596.000
4.60995 1479.000
4.73163 1251.000
4.85331 1151.000
4.97499 1071.000
5.09667 1014.000
5.21835 934.000
5.34003 897.000
5.46171 794.000
5.58339 724.000
5.70507 673.000
5.82676 644.000
5.94844 584.000
6.07012 556.000
6.19180 526.000
6.31348 537.000
6.43516 569.000
6.55684 784.000
6.67852 1688.000
6.80020 4739.000
6.92188 1952.000
7.04356 619.000
7.16524 529.000
7.28692 481.000
7.40860 458.000
7.53028 419.000
7.65197 412.000
7.77365 363.000
7.89533 408.000
8.01701 474.000
8.13869 748.000
8.26037 1919.000
8.38205 5158.000
8.50373 1413.000
8.62541 964.000
8.74709 532.000
8.86877 483.000
8.99045 404.000
9.11213 375.000
9.23381 380.000
9.35549 413.000
9.47717 575.000
9.59886 380.000
9.72054 421.000
9.84222 640.000
9.96390 461.000
10.08558 449.000
10.20726 382.000
10.32894 395.000
10.45062 575.000
10.57230 1105.000
10.69398 462.000
10.81566 426.000
10.93734 506.000
11.05902 402.000
11.18070 353.000
11.30238 355.000
11.42406 353.000
11.54575 337.000
11.66743 327.000
11.78911 317.000
11.91079 312.000
12.03247 355.000
12.15415 340.000
12.27583 334.000
12.39751 369.000
12.51919 405.000
12.64087 350.000
12.76255 356.000
12.88423 373.000
13.00591 421.000
13.12759 573.000
13.24927 735.000
13.37096 967.000
13.49264 1170.000
13.61432 1162.000
13.73600 789.000
13.85768 441.000
13.97936 390.000
14.10104 384.000
14.22272 440.000
14.34440 449.000
14.46608 507.000
14.58776 1065.000
14.70944 1774.000
14.83112 946.000
14.95280 1211.000
15.07448 531.000
15.19616 453.000
15.31785 433.000
15.43953 444.000
15.56121 462.000
15.68289 483.000
15.80457 484.000
15.92625 546.000
16.04793 787.000
16.16961 820.000
16.29129 1762.000
16.41297 2934.000
16.53465 1533.000
16.65633 2133.000
16.77801 2539.000
16.89969 1763.000
17.02137 2572.000
17.14305 3869.000
17.26474 1438.000
17.38642 994.000
17.50810 720.000
17.62978 825.000
17.75146 1402.000
17.87314 1504.000
17.99482 3144.000
18.11650 6259.000
18.23818 2375.000
18.35986 1609.000
18.48154 1347.000
18.60322 2061.000
18.72490 2996.000
18.84658 1615.000
18.96826 1439.000
19.08995 1497.000
19.21163 934.000
19.33331 1275.000
19.45499 2811.000
19.57667 3386.000
19.69835 1757.000
19.82003 2481.000
19.94171 3863.000
20.06339 2369.000
20.18507 2648.000
20.30675 3550.000
20.42843 2426.000
20.55011 1294.000
20.67179 1109.000
20.79347 895.000
20.91515 933.000
21.03684 1111.000
21.15852 1744.000
21.28020 3131.000
21.40188 6553.000
21.52356 8785.000
21.64524 7879.000
21.76692 3670.000
21.88860 1388.000
22.01028 1010.000
22.13196 1014.000
22.25364 954.000
22.37532 1029.000
22.49700 1441.000
22.61868 1140.000
22.74036 1006.000
22.86204 1320.000
22.98373 1231.000
23.10541 1103.000
23.22709 944.000
23.34877 1518.000
23.47045 2613.000
23.59213 2701.000
23.71381 1621.000
23.83549 1304.000
23.95717 1030.000
24.07885 893.000
24.20053 1030.000
24.32221 1538.000
24.44389 2138.000
24.56557 1083.000
24.68725 1102.000
24.80893 1141.000
24.93062 887.000
25.05230 1092.000
25.17398 1587.000
25.29566 1608.000
25.41734 1326.000
25.53902 1219.000
25.66070 813.000
25.78238 795.000
25.90406 1064.000
26.02574 1641.000
26.14742 1548.000
26.26910 995.000
26.39078 1174.000
26.51246 1346.000
26.63414 1418.000
26.75583 1177.000
26.87751 1317.000
26.99919 1510.000
27.12087 1375.000
27.24255 1086.000
27.36423 1063.000
27.48591 1238.000
27.60759 931.000
27.72927 614.000
27.85095 543.000
27.97263 505.000
28.09431 494.000
28.21599 662.000
28.33767 818.000
28.45935 1046.000
28.58103 1132.000
28.70272 949.000
28.82440 742.000
28.94608 791.000
29.06776 999.000
29.18944 948.000
29.31112 838.000
29.43280 803.000
29.55448 804.000
29.67616 810.000
29.79784 1015.000
29.91952 1070.000
30.04120 1001.000
30.16288 801.000
30.28456 724.000
30.40624 840.000
30.52792 763.000
30.64961 519.000
30.77129 509.000
30.89297 516.000
31.01465 626.000
31.13633 727.000
31.25801 686.000
31.37969 593.000
31.50137 558.000
31.62305 635.000
31.74473 668.000
31.86641 690.000
31.98809 693.000
32.10977 644.000
32.23145 571.000
32.35313 590.000
32.47482 508.000
32.59650 493.000
32.71818 541.000
32.83986 544.000
32.96154 616.000
33.08322 641.000
33.20490 659.000
33.32658 713.000
33.44826 656.000
33.56994 576.000
33.69162 549.000
33.81330 523.000
33.93498 578.000
34.05666 626.000
34.17834 613.000
34.30002 679.000
34.42171 772.000
34.54339 1104.000
34.66507 1039.000
34.78675 827.000
34.90843 882.000
35.03011 859.000
35.15179 676.000
35.27347 587.000
35.39515 560.000
35.51683 612.000
35.63851 557.000
35.76019 515.000
35.88187 458.000
36.00355 542.000
36.12523 533.000
36.24691 578.000
36.36860 632.000
36.49028 657.000
36.61196 748.000
36.73364 832.000
36.85532 750.000
36.97700 704.000
37.09868 624.000
37.22036 679.000
37.34204 590.000
37.46372 560.000
37.58540 532.000
37.70708 578.000
37.82876 606.000
37.95044 676.000
38.07212 668.000
38.19381 576.000
38.31549 572.000
38.43717 585.000
38.55885 553.000
38.68053 535.000
38.80221 464.000
38.92389 504.000
39.04557 482.000
39.16725 532.000
39.28893 513.000
39.41061 605.000
39.53229 624.000
39.65397 679.000
39.77565 607.000
39.89733 540.000
39.99873 622.000

File: RVR_IPA_30uL.xy
4.00155 2284.000
4.12323 1925.000
4.24491 1699.000
4.36659 1441.000
4.48827 1294.000
4.60995 1231.000
4.73163 1083.000
4.85331 1066.000
4.97499 942.000
5.09667 961.000
5.21835 769.000
5.34003 766.000
5.46171 730.000
5.58339 712.000
5.70507 620.000
5.82676 609.000
5.94844 624.000
6.07012 551.000
6.19180 585.000
6.31348 766.000
6.43516 912.000
6.55684 550.000
6.67852 603.000
6.80020 834.000
6.92188 532.000
7.04356 467.000
7.16524 418.000
7.28692 416.000
7.40860 430.000
7.53028 435.000
7.65197 440.000
7.77365 456.000
7.89533 459.000
8.01701 420.000
8.13869 482.000
8.26037 663.000
8.38205 1125.000
8.50373 2099.000
8.62541 5575.000
8.74709 1183.000
8.86877 606.000
8.99045 495.000
9.11213 514.000
9.23381 600.000
9.35549 1304.000
9.47717 3050.000
9.59886 854.000
9.72054 1351.000
9.84222 4007.000
9.96390 974.000
10.08558 576.000
10.20726 449.000
10.32894 535.000
10.45062 530.000
10.57230 505.000
10.69398 468.000
10.81566 1008.000
10.93734 2370.000
11.05902 599.000
11.18070 416.000
11.30238 387.000
11.42406 362.000
11.54575 361.000
11.66743 361.000
11.78911 403.000
11.91079 347.000
12.03247 398.000
12.15415 338.000
12.27583 391.000
12.39751 365.000
12.51919 343.000
12.64087 369.000
12.76255 394.000
12.88423 481.000
13.00591 563.000
13.12759 555.000
13.24927 947.000
13.37096 572.000
13.49264 717.000
13.61432 1648.000
13.73600 2291.000
13.85768 1130.000
13.97936 523.000
14.10104 434.000
14.22272 404.000
14.34440 380.000
14.46608 430.000
14.58776 521.000
14.70944 557.000
14.83112 796.000
14.95280 561.000
15.07448 398.000
15.19616 391.000
15.31785 456.000
15.43953 541.000
15.56121 919.000
15.68289 820.000
15.80457 714.000
15.92625 1463.000
16.04793 3602.000
16.16961 1230.000
16.29129 1022.000
16.41297 1592.000
16.53465 1658.000
16.65633 3095.000
16.77801 1171.000
16.89969 803.000
17.02137 972.000
17.14305 1538.000
17.26474 3403.000
17.38642 2781.000
17.50810 1425.000
17.62978 2966.000
17.75146 6612.000
17.87314 1936.000
17.99482 1446.000
18.11650 1990.000
18.23818 3886.000
18.35986 6654.000
18.48154 2014.000
18.60322 1136.000
18.72490 1566.000
18.84658 2907.000
18.96826 2287.000
19.08995 1227.000
19.21163 1228.000
19.33331 1658.000
19.45499 2940.000
19.57667 2082.000
19.69835 2580.000
19.82003 2816.000
19.94171 3566.000
20.06339 4035.000
20.18507 1882.000
20.30675 2180.000
20.42843 1903.000
20.55011 3253.000
20.67179 2809.000
20.79347 1162.000
20.91515 1249.000
21.03684 988.000
21.15852 1173.000
21.28020 1841.000
21.40188 3168.000
21.52356 3753.000
21.64524 5770.000
21.76692 2507.000
21.88860 1322.000
22.01028 1507.000
22.13196 2402.000
22.25364 1613.000
22.37532 967.000
22.49700 1140.000
22.61868 1255.000
22.74036 1689.000
22.86204 990.000
22.98373 910.000
23.10541 876.000
23.22709 829.000
23.34877 1396.000
23.47045 1496.000
23.59213 1171.000
23.71381 1103.000
23.83549 1156.000
23.95717 1446.000
24.07885 1434.000
24.20053 1389.000
24.32221 1012.000
24.44389 1101.000
24.56557 930.000
24.68725 1258.000
24.80893 1289.000
24.93062 914.000
25.05230 912.000
25.17398 1510.000
25.29566 2625.000
25.41734 1829.000
25.53902 975.000
25.66070 958.000
25.78238 1311.000
25.90406 1175.000
26.02574 1572.000
26.14742 1588.000
26.26910 1335.000
26.39078 1305.000
26.51246 1113.000
26.63414 763.000
26.75583 748.000
26.87751 974.000
26.99919 777.000
27.12087 607.000
27.24255 693.000
27.36423 695.000
27.48591 772.000
27.60759 604.000
27.72927 481.000
27.85095 516.000
27.97263 577.000
28.09431 528.000
28.21599 571.000
28.33767 745.000
28.45935 1235.000
28.58103 1727.000
28.70272 1270.000
28.82440 802.000
28.94608 600.000
29.06776 543.000
29.18944 632.000
29.31112 535.000
29.43280 511.000
29.55448 670.000
29.67616 982.000
29.79784 1366.000
29.91952 1140.000
30.04120 1199.000
30.16288 953.000
30.28456 800.000
30.40624 632.000
30.52792 524.000
30.64961 528.000
30.77129 584.000
30.89297 629.000
31.01465 638.000
31.13633 635.000
31.25801 829.000
31.37969 873.000
31.50137 950.000
31.62305 1324.000
31.74473 1077.000
31.86641 830.000
31.98809 881.000
32.10977 762.000
32.23145 587.000
32.35313 669.000
32.47482 506.000
32.59650 472.000
32.71818 463.000
32.83986 475.000
32.96154 574.000
33.08322 641.000
33.20490 650.000
33.32658 545.000
33.44826 604.000
33.56994 682.000
33.69162 687.000
33.81330 549.000
33.93498 486.000
34.05666 477.000
34.17834 498.000
34.30002 410.000
34.42171 384.000
34.54339 450.000
34.66507 531.000
34.78675 612.000
34.90843 750.000
35.03011 836.000
35.15179 772.000
35.27347 747.000
35.39515 571.000
35.51683 510.000
35.63851 499.000
35.76019 478.000
35.88187 540.000
36.00355 663.000
36.12523 811.000
36.24691 787.000
36.36860 667.000
36.49028 578.000
36.61196 526.000
36.73364 499.000
36.85532 484.000
36.97700 463.000
37.09868 497.000
37.22036 597.000
37.34204 575.000
37.46372 500.000
37.58540 438.000
37.70708 465.000
37.82876 524.000
37.95044 545.000
38.07212 523.000
38.19381 580.000
38.31549 657.000
38.43717 621.000
38.55885 552.000
38.68053 507.000
38.80221 598.000
38.92389 677.000
39.04557 805.000
39.16725 609.000
39.28893 487.000
39.41061 506.000
39.53229 551.000
39.65397 538.000
39.77565 502.000
39.89733 491.000
39.99873 554.000

File: RVR_IPA_40uL.xy
4.00155 2198.000
4.12323 1817.000
4.24491 1661.000
4.36659 1321.000
4.48827 1200.000
4.60995 1147.000
4.73163 1031.000
4.85331 979.000
4.97499 925.000
5.09667 875.000
5.21835 820.000
5.34003 769.000
5.46171 651.000
5.58339 618.000
5.70507 578.000
5.82676 613.000
5.94844 530.000
6.07012 525.000
6.19180 531.000
6.31348 663.000
6.43516 908.000
6.55684 467.000
6.67852 396.000
6.80020 452.000
6.92188 417.000
7.04356 413.000
7.16524 375.000
7.28692 357.000
7.40860 342.000
7.53028 372.000
7.65197 385.000
7.77365 371.000
7.89533 388.000
8.01701 331.000
8.13869 391.000
8.26037 468.000
8.38205 622.000
8.50373 1720.000
8.62541 5653.000
8.74709 1360.000
8.86877 595.000
8.99045 489.000
9.11213 419.000
9.23381 546.000
9.35549 1089.000
9.47717 3328.000
9.59886 1083.000
9.72054 1222.000
9.84222 3948.000
9.96390 1118.000
10.08558 551.000
10.20726 428.000
10.32894 427.000
10.45062 516.000
10.57230 444.000
10.69398 413.000
10.81566 792.000
10.93734 2387.000
11.05902 675.000
11.18070 420.000
11.30238 364.000
11.42406 380.000
11.54575 332.000
11.66743 341.000
11.78911 319.000
11.91079 328.000
12.03247 340.000
12.15415 327.000
12.27583 356.000
12.39751 422.000
12.51919 345.000
12.64087 349.000
12.76255 324.000
12.88423 419.000
13.00591 528.000
13.12759 500.000
13.24927 918.000
13.37096 547.000
13.49264 587.000
13.61432 1500.000
13.73600 2548.000
13.85768 1429.000
13.97936 465.000
14.10104 401.000
14.22272 366.000
14.34440 399.000
14.46608 361.000
14.58776 389.000
14.70944 422.000
14.83112 777.000
14.95280 588.000
15.07448 420.000
15.19616 396.000
15.31785 405.000
15.43953 488.000
15.56121 898.000
15.68289 887.000
15.80457 694.000
15.92625 1376.000
16.04793 4271.000
16.16961 1581.000
16.29129 931.000
16.41297 1366.000
16.53465 1552.000
16.65633 3631.000
16.77801 1142.000
16.89969 673.000
17.02137 733.000
17.14305 1134.000
17.26474 3602.000
17.38642 3503.000
17.50810 1124.000
17.62978 2529.000
17.75146 7662.000
17.87314 2114.000
17.99482 1196.000
18.11650 1316.000
18.23818 3915.000
18.35986 8052.000
18.48154 2463.000
18.60322 994.000
18.72490 1316.000
18.84658 3302.000
18.96826 2810.000
19.08995 1265.000
19.21163 1119.000
19.33331 1594.000
19.45499 3246.000
19.57667 2089.000
19.69835 2650.000
19.82003 2914.000
19.94171 3712.000
20.06339 4924.000
20.18507 1870.000
20.30675 2215.000
20.42843 1712.000
20.55011 3654.000
20.67179 3419.000
20.79347 1222.000
20.91515 1368.000
21.03684 1027.000
21.15852 1156.000
21.28020 1665.000
21.40188 3134.000
21.52356 3635.000
21.64524 6666.000
21.76692 2929.000
21.88860 1357.000
22.01028 1607.000
22.13196 2957.000
22.25364 1901.000
22.37532 972.000
22.49700 1114.000
22.61868 1343.000
22.74036 1953.000
22.86204 1011.000
22.98373 1025.000
23.10541 971.000
23.22709 831.000
23.34877 1479.000
23.47045 1654.000
23.59213 1117.000
23.71381 1168.000
23.83549 1169.000
23.95717 1585.000
24.07885 1668.000
24.20053 1607.000
24.32221 1037.000
24.44389 1154.000
24.56557 869.000
24.68725 1605.000
24.80893 1456.000
24.93062 991.000
25.05230 818.000
25.17398 1542.000
25.29566 3207.000
25.41734 2226.000
25.53902 1117.000
25.66070 1007.000
25.78238 1487.000
25.90406 1152.000
26.02574 1531.000
26.14742 1939.000
26.26910 1555.000
26.39078 1462.000
26.51246 1330.000
26.63414 753.000
26.75583 747.000
26.87751 1201.000
26.99919 796.000
27.12087 583.000
27.24255 685.000
27.36423 782.000
27.48591 806.000
27.60759 675.000
27.72927 537.000
27.85095 573.000
27.97263 609.000
28.09431 594.000
28.21599 568.000
28.33767 699.000
28.45935 1301.000
28.58103 2040.000
28.70272 1547.000
28.82440 1009.000
28.94608 570.000
29.06776 561.000
29.18944 651.000
29.31112 577.000
29.43280 502.000
29.55448 645.000
29.67616 1057.000
29.79784 1564.000
29.91952 1252.000
30.04120 1322.000
30.16288 1162.000
30.28456 947.000
30.40624 736.000
30.52792 513.000
30.64961 592.000
30.77129 702.000
30.89297 792.000
31.01465 736.000
31.13633 715.000
31.25801 865.000
31.37969 993.000
31.50137 1081.000
31.62305 1565.000
31.74473 1223.000
31.86641 914.000
31.98809 976.000
32.10977 857.000
32.23145 597.000
32.35313 749.000
32.47482 595.000
32.59650 542.000
32.71818 515.000
32.83986 522.000
32.96154 524.000
33.08322 755.000
33.20490 760.000
33.32658 556.000
33.44826 635.000
33.56994 766.000
33.69162 811.000
33.81330 624.000
33.93498 505.000
34.05666 475.000
34.17834 529.000
34.30002 427.000
34.42171 453.000
34.54339 478.000
34.66507 560.000
34.78675 642.000
34.90843 804.000
35.03011 1027.000
35.15179 895.000
35.27347 947.000
35.39515 653.000
35.51683 541.000
35.63851 509.000
35.76019 528.000
35.88187 595.000
36.00355 742.000
36.12523 962.000
36.24691 1068.000
36.36860 904.000
36.49028 654.000
36.61196 548.000
36.73364 607.000
36.85532 546.000
36.97700 483.000
37.09868 570.000
37.22036 687.000
37.34204 648.000
37.46372 522.000
37.58540 436.000
37.70708 458.000
37.82876 540.000
37.95044 636.000
38.07212 545.000
38.19381 652.000
38.31549 727.000
38.43717 717.000
38.55885 636.000
38.68053 572.000
38.80221 630.000
38.92389 760.000
39.04557 895.000
39.16725 696.000
39.28893 524.000
39.41061 587.000
39.53229 647.000
39.65397 644.000
39.77565 549.000
39.89733 567.000
39.99873 606.000